# wavelength (microns), transmission, emissivity
4.0000,0.2075,0.000
4.0037,0.2048,0.000
4.0073,0.2021,0.000
4.0110,0.1994,0.000
4.0147,0.1963,0.000
4.0183,0.1932,0.000
4.0220,0.1902,0.000
4.0257,0.1871,0.000
4.0293,0.1841,0.000
4.0330,0.1810,0.000
4.0367,0.1779,0.000
4.0403,0.1749,0.000
4.0440,0.1718,0.000
4.0477,0.1687,0.000
4.0514,0.1657,0.000
4.0550,0.1626,0.000
4.0587,0.1596,0.000
4.0624,0.1565,0.000
4.0660,0.1537,0.000
4.0697,0.1518,0.000
4.0734,0.1499,0.000
4.0770,0.1479,0.000
4.0807,0.1460,0.000
4.0844,0.1441,0.000
4.0880,0.1421,0.000
4.0917,0.1402,0.000
4.0954,0.1382,0.000
4.0990,0.1363,0.000
4.1027,0.1344,0.000
4.1064,0.1324,0.000
4.1100,0.1305,0.000
4.1137,0.1285,0.000
4.1174,0.1266,0.000
4.1210,0.1247,0.000
4.1247,0.1227,0.000
4.1284,0.1208,0.000
4.1320,0.1189,0.000
4.1357,0.1169,0.000
4.1394,0.1150,0.000
4.1430,0.1130,0.000
4.1467,0.1118,0.000
4.1504,0.1114,0.000
4.1541,0.1110,0.000
4.1577,0.1105,0.000
4.1614,0.1101,0.000
4.1651,0.1097,0.000
4.1687,0.1092,0.000
4.1724,0.1088,0.000
4.1761,0.1084,0.000
4.1797,0.1079,0.000
4.1834,0.1075,0.000
4.1871,0.1071,0.000
4.1907,0.1066,0.000
4.1944,0.1062,0.000
4.1981,0.1058,0.000
4.2017,0.1052,0.000
4.2054,0.1045,0.000
4.2091,0.1038,0.000
4.2127,0.1031,0.000
4.2164,0.1024,0.000
4.2201,0.1017,0.000
4.2237,0.1010,0.000
4.2274,0.1003,0.000
4.2311,0.0996,0.000
4.2347,0.0989,0.000
4.2384,0.0982,0.000
4.2421,0.0975,0.000
4.2457,0.0968,0.000
4.2494,0.0961,0.000
4.2531,0.0955,0.000
4.2568,0.0948,0.000
4.2604,0.0941,0.000
4.2641,0.0934,0.000
4.2678,0.0927,0.000
4.2714,0.0920,0.000
4.2751,0.0913,0.000
4.2788,0.0906,0.000
4.2824,0.0901,0.000
4.2861,0.0900,0.000
4.2898,0.0898,0.000
4.2934,0.0897,0.000
4.2971,0.0895,0.000
4.3008,0.0894,0.000
4.3044,0.0892,0.000
4.3081,0.0891,0.000
4.3118,0.0890,0.000
4.3154,0.0888,0.000
4.3191,0.0887,0.000
4.3228,0.0885,0.000
4.3264,0.0884,0.000
4.3301,0.0882,0.000
4.3338,0.0881,0.000
4.3374,0.0879,0.000
4.3411,0.0878,0.000
4.3448,0.0877,0.000
4.3484,0.0875,0.000
4.3521,0.0874,0.000
4.3558,0.0872,0.000
4.3595,0.0871,0.000
4.3631,0.0869,0.000
4.3668,0.0868,0.000
4.3705,0.0866,0.000
4.3741,0.0865,0.000
4.3778,0.0864,0.000
4.3815,0.0862,0.000
4.3851,0.0861,0.000
4.3888,0.0860,0.000
4.3925,0.0862,0.000
4.3961,0.0865,0.000
4.3998,0.0867,0.000
4.4035,0.0870,0.000
4.4071,0.0872,0.000
4.4108,0.0875,0.000
4.4145,0.0877,0.000
4.4181,0.0880,0.000
4.4218,0.0882,0.000
4.4255,0.0884,0.000
4.4291,0.0887,0.000
4.4328,0.0889,0.000
4.4365,0.0892,0.000
4.4401,0.0894,0.000
4.4438,0.0897,0.000
4.4475,0.0899,0.000
4.4512,0.0902,0.000
4.4548,0.0904,0.000
4.4585,0.0907,0.000
4.4622,0.0909,0.000
4.4658,0.0911,0.000
4.4695,0.0914,0.000
4.4732,0.0916,0.000
4.4768,0.0919,0.000
4.4805,0.0921,0.000
4.4842,0.0925,0.000
4.4878,0.0932,0.000
4.4915,0.0939,0.000
4.4952,0.0946,0.000
4.4988,0.0953,0.000
4.5025,0.0959,0.000
4.5062,0.0966,0.000
4.5098,0.0973,0.000
4.5135,0.0980,0.000
4.5172,0.0987,0.000
4.5208,0.0994,0.000
4.5245,0.1001,0.000
4.5282,0.1007,0.000
4.5318,0.1014,0.000
4.5355,0.1021,0.000
4.5392,0.1028,0.000
4.5428,0.1035,0.000
4.5465,0.1042,0.000
4.5502,0.1049,0.000
4.5539,0.1056,0.000
4.5575,0.1062,0.000
4.5612,0.1069,0.000
4.5649,0.1077,0.000
4.5685,0.1086,0.000
4.5722,0.1095,0.000
4.5759,0.1103,0.000
4.5795,0.1112,0.000
4.5832,0.1120,0.000
4.5869,0.1129,0.000
4.5905,0.1137,0.000
4.5942,0.1146,0.000
4.5979,0.1154,0.000
4.6015,0.1163,0.000
4.6052,0.1172,0.000
4.6089,0.1180,0.000
4.6125,0.1189,0.000
4.6162,0.1197,0.000
4.6199,0.1206,0.000
4.6235,0.1214,0.000
4.6272,0.1223,0.000
4.6309,0.1231,0.000
4.6345,0.1240,0.000
4.6382,0.1248,0.000
4.6419,0.1257,0.000
4.6455,0.1266,0.000
4.6492,0.1274,0.000
4.6529,0.1283,0.000
4.6566,0.1291,0.000
4.6602,0.1300,0.000
4.6639,0.1308,0.000
4.6676,0.1317,0.000
4.6712,0.1325,0.000
4.6749,0.1334,0.000
4.6786,0.1343,0.000
4.6822,0.1351,0.000
4.6859,0.1360,0.000
4.6896,0.1368,0.000
4.6932,0.1377,0.000
4.6969,0.1385,0.000
4.7006,0.1400,0.000
4.7042,0.1418,0.000
4.7079,0.1435,0.000
4.7116,0.1453,0.000
4.7152,0.1470,0.000
4.7189,0.1488,0.000
4.7226,0.1505,0.000
4.7262,0.1523,0.000
4.7299,0.1540,0.000
4.7336,0.1558,0.000
4.7372,0.1575,0.000
4.7409,0.1593,0.000
4.7446,0.1611,0.000
4.7482,0.1628,0.000
4.7519,0.1646,0.000
4.7556,0.1663,0.000
4.7593,0.1681,0.000
4.7629,0.1698,0.000
4.7666,0.1716,0.000
4.7703,0.1733,0.000
4.7739,0.1751,0.000
4.7776,0.1768,0.000
4.7813,0.1786,0.000
4.7849,0.1810,0.000
4.7886,0.1836,0.000
4.7923,0.1862,0.000
4.7959,0.1888,0.000
4.7996,0.1913,0.000
4.8033,0.1939,0.000
4.8069,0.1965,0.000
4.8106,0.1991,0.000
4.8143,0.2017,0.000
4.8179,0.2043,0.000
4.8216,0.2068,0.000
4.8253,0.2094,0.000
4.8289,0.2120,0.000
4.8326,0.2146,0.000
4.8363,0.2172,0.000
4.8399,0.2205,0.000
4.8436,0.2238,0.000
4.8473,0.2271,0.000
4.8510,0.2304,0.000
4.8546,0.2337,0.000
4.8583,0.2370,0.000
4.8620,0.2403,0.000
4.8656,0.2436,0.000
4.8693,0.2469,0.000
4.8730,0.2502,0.000
4.8766,0.2536,0.000
4.8803,0.2569,0.000
4.8840,0.2602,0.000
4.8876,0.2635,0.000
4.8913,0.2663,0.000
4.8950,0.2684,0.000
4.8986,0.2705,0.000
4.9023,0.2726,0.000
4.9060,0.2747,0.000
4.9096,0.2768,0.000
4.9133,0.2789,0.000
4.9170,0.2810,0.000
4.9206,0.2831,0.000
4.9243,0.2852,0.000
4.9280,0.2872,0.000
4.9316,0.2893,0.000
4.9353,0.2914,0.000
4.9390,0.2935,0.000
4.9426,0.2956,0.000
4.9463,0.2977,0.000
4.9500,0.2998,0.000
4.9537,0.3019,0.000
4.9573,0.3040,0.000
4.9610,0.3061,0.000
4.9647,0.3082,0.000
4.9683,0.3103,0.000
4.9720,0.3123,0.000
4.9757,0.3153,0.000
4.9793,0.3193,0.000
4.9830,0.3233,0.000
4.9867,0.3273,0.000
4.9903,0.3312,0.000
4.9940,0.3352,0.000
4.9977,0.3392,0.000
5.0013,0.3432,0.000
5.0050,0.3472,0.000
5.0087,0.3512,0.000
5.0123,0.3552,0.000
5.0160,0.3592,0.000
5.0197,0.3631,0.000
5.0233,0.3671,0.000
5.0270,0.3711,0.000
5.0307,0.3751,0.000
5.0343,0.3791,0.000
5.0380,0.3831,0.000
5.0417,0.3871,0.000
5.0453,0.3911,0.000
5.0490,0.3950,0.000
5.0527,0.3990,0.000
5.0564,0.4024,0.000
5.0600,0.4048,0.000
5.0637,0.4071,0.000
5.0674,0.4095,0.000
5.0710,0.4118,0.000
5.0747,0.4142,0.000
5.0784,0.4165,0.000
5.0820,0.4188,0.000
5.0857,0.4212,0.000
5.0894,0.4235,0.000
5.0930,0.4259,0.000
5.0967,0.4282,0.000
5.1004,0.4306,0.000
5.1040,0.4329,0.000
5.1077,0.4353,0.000
5.1114,0.4376,0.000
5.1150,0.4400,0.000
5.1187,0.4423,0.000
5.1224,0.4447,0.000
5.1260,0.4470,0.000
5.1297,0.4494,0.000
5.1334,0.4517,0.000
5.1370,0.4541,0.000
5.1407,0.4564,0.000
5.1444,0.4587,0.000
5.1480,0.4611,0.000
5.1517,0.4634,0.000
5.1554,0.4658,0.000
5.1591,0.4681,0.000
5.1627,0.4705,0.000
5.1664,0.4743,0.000
5.1701,0.4789,0.000
5.1737,0.4835,0.000
5.1774,0.4881,0.000
5.1811,0.4927,0.000
5.1847,0.4973,0.000
5.1884,0.5019,0.000
5.1921,0.5065,0.000
5.1957,0.5111,0.000
5.1994,0.5157,0.000
5.2031,0.5203,0.000
5.2067,0.5248,0.000
5.2104,0.5292,0.000
5.2141,0.5335,0.000
5.2177,0.5379,0.000
5.2214,0.5423,0.000
5.2251,0.5467,0.000
5.2287,0.5510,0.000
5.2324,0.5554,0.000
5.2361,0.5598,0.000
5.2397,0.5642,0.000
5.2434,0.5685,0.000
5.2471,0.5712,0.000
5.2508,0.5734,0.000
5.2544,0.5757,0.000
5.2581,0.5780,0.000
5.2618,0.5803,0.000
5.2654,0.5826,0.000
5.2691,0.5849,0.000
5.2728,0.5872,0.000
5.2764,0.5895,0.000
5.2801,0.5918,0.000
5.2838,0.5941,0.000
5.2874,0.5964,0.000
5.2911,0.5987,0.000
5.2948,0.6010,0.000
5.2984,0.6032,0.000
5.3021,0.6044,0.000
5.3058,0.6056,0.000
5.3094,0.6068,0.000
5.3131,0.6080,0.000
5.3168,0.6092,0.000
5.3204,0.6104,0.000
5.3241,0.6116,0.000
5.3278,0.6128,0.000
5.3314,0.6140,0.000
5.3351,0.6152,0.000
5.3388,0.6164,0.000
5.3424,0.6175,0.000
5.3461,0.6187,0.000
5.3498,0.6199,0.000
5.3535,0.6211,0.000
5.3571,0.6223,0.000
5.3608,0.6235,0.000
5.3645,0.6247,0.000
5.3681,0.6259,0.000
5.3718,0.6271,0.000
5.3755,0.6283,0.000
5.3791,0.6295,0.000
5.3828,0.6312,0.000
5.3865,0.6331,0.000
5.3901,0.6350,0.000
5.3938,0.6369,0.000
5.3975,0.6387,0.000
5.4011,0.6406,0.000
5.4048,0.6425,0.000
5.4085,0.6443,0.000
5.4121,0.6462,0.000
5.4158,0.6481,0.000
5.4195,0.6500,0.000
5.4231,0.6508,0.000
5.4268,0.6515,0.000
5.4305,0.6522,0.000
5.4341,0.6529,0.000
5.4378,0.6536,0.000
5.4415,0.6543,0.000
5.4451,0.6550,0.000
5.4488,0.6557,0.000
5.4525,0.6564,0.000
5.4562,0.6571,0.000
5.4598,0.6578,0.000
5.4635,0.6582,0.000
5.4672,0.6586,0.000
5.4708,0.6590,0.000
5.4745,0.6593,0.000
5.4782,0.6597,0.000
5.4818,0.6601,0.000
5.4855,0.6605,0.000
5.4892,0.6608,0.000
5.4928,0.6612,0.000
5.4965,0.6616,0.000
5.5002,0.6619,0.000
5.5038,0.6623,0.000
5.5075,0.6627,0.000
5.5112,0.6630,0.000
5.5148,0.6634,0.000
5.5185,0.6638,0.000
5.5222,0.6641,0.000
5.5258,0.6645,0.000
5.5295,0.6649,0.000
5.5332,0.6653,0.000
5.5368,0.6656,0.000
5.5405,0.6660,0.000
5.5442,0.6664,0.000
5.5478,0.6667,0.000
5.5515,0.6671,0.000
5.5552,0.6673,0.000
5.5589,0.6675,0.000
5.5625,0.6676,0.000
5.5662,0.6678,0.000
5.5699,0.6680,0.000
5.5735,0.6681,0.000
5.5772,0.6683,0.000
5.5809,0.6685,0.000
5.5845,0.6686,0.000
5.5882,0.6688,0.000
5.5919,0.6689,0.000
5.5955,0.6691,0.000
5.5992,0.6693,0.000
5.6029,0.6694,0.000
5.6065,0.6696,0.000
5.6102,0.6698,0.000
5.6139,0.6699,0.000
5.6175,0.6701,0.000
5.6212,0.6703,0.000
5.6249,0.6704,0.000
5.6285,0.6706,0.000
5.6322,0.6708,0.000
5.6359,0.6709,0.000
5.6395,0.6711,0.000
5.6432,0.6713,0.000
5.6469,0.6714,0.000
5.6506,0.6716,0.000
5.6542,0.6718,0.000
5.6579,0.6719,0.000
5.6616,0.6721,0.000
5.6652,0.6720,0.000
5.6689,0.6720,0.000
5.6726,0.6720,0.000
5.6762,0.6719,0.000
5.6799,0.6719,0.000
5.6836,0.6719,0.000
5.6872,0.6718,0.000
5.6909,0.6718,0.000
5.6946,0.6718,0.000
5.6982,0.6717,0.000
5.7019,0.6717,0.000
5.7056,0.6717,0.000
5.7092,0.6716,0.000
5.7129,0.6716,0.000
5.7166,0.6715,0.000
5.7202,0.6715,0.000
5.7239,0.6715,0.000
5.7276,0.6714,0.000
5.7312,0.6714,0.000
5.7349,0.6714,0.000
5.7386,0.6713,0.000
5.7422,0.6713,0.000
5.7459,0.6713,0.000
5.7496,0.6712,0.000
5.7533,0.6712,0.000
5.7569,0.6712,0.000
5.7606,0.6711,0.000
5.7643,0.6711,0.000
5.7679,0.6711,0.000
5.7716,0.6710,0.000
5.7753,0.6710,0.000
5.7789,0.6710,0.000
5.7826,0.6709,0.000
5.7863,0.6709,0.000
5.7899,0.6708,0.000
5.7936,0.6708,0.000
5.7973,0.6708,0.000
5.8009,0.6707,0.000
5.8046,0.6707,0.000
5.8083,0.6707,0.000
5.8119,0.6707,0.000
5.8156,0.6708,0.000
5.8193,0.6709,0.000
5.8229,0.6710,0.000
5.8266,0.6711,0.000
5.8303,0.6712,0.000
5.8339,0.6713,0.000
5.8376,0.6714,0.000
5.8413,0.6715,0.000
5.8449,0.6716,0.000
5.8486,0.6717,0.000
5.8523,0.6718,0.000
5.8560,0.6719,0.000
5.8596,0.6720,0.000
5.8633,0.6721,0.000
5.8670,0.6722,0.000
5.8706,0.6723,0.000
5.8743,0.6724,0.000
5.8780,0.6725,0.000
5.8816,0.6726,0.000
5.8853,0.6727,0.000
5.8890,0.6728,0.000
5.8926,0.6729,0.000
5.8963,0.6730,0.000
5.9000,0.6731,0.000
5.9036,0.6731,0.000
5.9073,0.6732,0.000
5.9110,0.6733,0.000
5.9146,0.6734,0.000
5.9183,0.6735,0.000
5.9220,0.6736,0.000
5.9256,0.6737,0.000
5.9293,0.6738,0.000
5.9330,0.6739,0.000
5.9366,0.6740,0.000
5.9403,0.6741,0.000
5.9440,0.6742,0.000
5.9476,0.6743,0.000
5.9513,0.6744,0.000
5.9550,0.6745,0.000
5.9587,0.6746,0.000
5.9623,0.6747,0.000
5.9660,0.6748,0.000
5.9697,0.6749,0.000
5.9733,0.6750,0.000
5.9770,0.6751,0.000
5.9807,0.6752,0.000
5.9843,0.6753,0.000
5.9880,0.6754,0.000
5.9917,0.6755,0.000
5.9953,0.6756,0.000
5.9990,0.6756,0.000
6.0027,0.6757,0.000
6.0063,0.6758,0.000
6.0100,0.6759,0.000
6.0137,0.6760,0.000
6.0173,0.6761,0.000
6.0210,0.6762,0.000
6.0247,0.6763,0.000
6.0283,0.6763,0.000
6.0320,0.6763,0.000
6.0357,0.6763,0.000
6.0393,0.6763,0.000
6.0430,0.6763,0.000
6.0467,0.6763,0.000
6.0504,0.6763,0.000
6.0540,0.6763,0.000
6.0577,0.6763,0.000
6.0614,0.6763,0.000
6.0650,0.6763,0.000
6.0687,0.6763,0.000
6.0724,0.6763,0.000
6.0760,0.6763,0.000
6.0797,0.6763,0.000
6.0834,0.6763,0.000
6.0870,0.6763,0.000
6.0907,0.6763,0.000
6.0944,0.6763,0.000
6.0980,0.6763,0.000
6.1017,0.6763,0.000
6.1054,0.6763,0.000
6.1090,0.6763,0.000
6.1127,0.6763,0.000
6.1164,0.6763,0.000
6.1200,0.6763,0.000
6.1237,0.6763,0.000
6.1274,0.6763,0.000
6.1310,0.6763,0.000
6.1347,0.6763,0.000
6.1384,0.6763,0.000
6.1420,0.6763,0.000
6.1457,0.6763,0.000
6.1494,0.6763,0.000
6.1531,0.6763,0.000
6.1567,0.6763,0.000
6.1604,0.6763,0.000
6.1641,0.6763,0.000
6.1677,0.6763,0.000
6.1714,0.6763,0.000
6.1751,0.6763,0.000
6.1787,0.6763,0.000
6.1824,0.6763,0.000
6.1861,0.6763,0.000
6.1897,0.6763,0.000
6.1934,0.6763,0.000
6.1971,0.6763,0.000
6.2007,0.6763,0.000
6.2044,0.6763,0.000
6.2081,0.6763,0.000
6.2117,0.6763,0.000
6.2154,0.6763,0.000
6.2191,0.6763,0.000
6.2227,0.6763,0.000
6.2264,0.6763,0.000
6.2301,0.6763,0.000
6.2337,0.6763,0.000
6.2374,0.6763,0.000
6.2411,0.6763,0.000
6.2447,0.6763,0.000
6.2484,0.6763,0.000
6.2521,0.6763,0.000
6.2558,0.6763,0.000
6.2594,0.6763,0.000
6.2631,0.6763,0.000
6.2668,0.6763,0.000
6.2704,0.6763,0.000
6.2741,0.6763,0.000
6.2778,0.6763,0.000
6.2814,0.6763,0.000
6.2851,0.6763,0.000
6.2888,0.6763,0.000
6.2924,0.6763,0.000
6.2961,0.6763,0.000
6.2998,0.6763,0.000
6.3034,0.6763,0.000
6.3071,0.6763,0.000
6.3108,0.6763,0.000
6.3144,0.6763,0.000
6.3181,0.6763,0.000
6.3218,0.6763,0.000
6.3254,0.6763,0.000
6.3291,0.6763,0.000
6.3328,0.6763,0.000
6.3364,0.6763,0.000
6.3401,0.6763,0.000
6.3438,0.6763,0.000
6.3474,0.6764,0.000
6.3511,0.6764,0.000
6.3548,0.6764,0.000
6.3585,0.6765,0.000
6.3621,0.6765,0.000
6.3658,0.6766,0.000
6.3695,0.6766,0.000
6.3731,0.6767,0.000
6.3768,0.6767,0.000
6.3805,0.6768,0.000
6.3841,0.6768,0.000
6.3878,0.6769,0.000
6.3915,0.6769,0.000
6.3951,0.6769,0.000
6.3988,0.6770,0.000
6.4025,0.6770,0.000
6.4061,0.6771,0.000
6.4098,0.6771,0.000
6.4135,0.6772,0.000
6.4171,0.6772,0.000
6.4208,0.6773,0.000
6.4245,0.6773,0.000
6.4281,0.6774,0.000
6.4318,0.6774,0.000
6.4355,0.6774,0.000
6.4391,0.6775,0.000
6.4428,0.6775,0.000
6.4465,0.6776,0.000
6.4502,0.6776,0.000
6.4538,0.6777,0.000
6.4575,0.6777,0.000
6.4612,0.6778,0.000
6.4648,0.6778,0.000
6.4685,0.6779,0.000
6.4722,0.6779,0.000
6.4758,0.6779,0.000
6.4795,0.6780,0.000
6.4832,0.6780,0.000
6.4868,0.6781,0.000
6.4905,0.6781,0.000
6.4942,0.6782,0.000
6.4978,0.6782,0.000
6.5015,0.6783,0.000
6.5052,0.6783,0.000
6.5088,0.6784,0.000
6.5125,0.6784,0.000
6.5162,0.6784,0.000
6.5198,0.6784,0.000
6.5235,0.6785,0.000
6.5272,0.6785,0.000
6.5308,0.6785,0.000
6.5345,0.6785,0.000
6.5382,0.6785,0.000
6.5418,0.6785,0.000
6.5455,0.6786,0.000
6.5492,0.6786,0.000
6.5529,0.6786,0.000
6.5565,0.6786,0.000
6.5602,0.6786,0.000
6.5639,0.6786,0.000
6.5675,0.6787,0.000
6.5712,0.6787,0.000
6.5749,0.6787,0.000
6.5785,0.6787,0.000
6.5822,0.6787,0.000
6.5859,0.6787,0.000
6.5895,0.6787,0.000
6.5932,0.6788,0.000
6.5969,0.6788,0.000
6.6005,0.6788,0.000
6.6042,0.6788,0.000
6.6079,0.6788,0.000
6.6115,0.6788,0.000
6.6152,0.6789,0.000
6.6189,0.6789,0.000
6.6225,0.6789,0.000
6.6262,0.6789,0.000
6.6299,0.6789,0.000
6.6335,0.6789,0.000
6.6372,0.6790,0.000
6.6409,0.6790,0.000
6.6445,0.6790,0.000
6.6482,0.6790,0.000
6.6519,0.6790,0.000
6.6556,0.6790,0.000
6.6592,0.6791,0.000
6.6629,0.6791,0.000
6.6666,0.6791,0.000
6.6702,0.6791,0.000
6.6739,0.6791,0.000
6.6776,0.6791,0.000
6.6812,0.6791,0.000
6.6849,0.6792,0.000
6.6886,0.6792,0.000
6.6922,0.6792,0.000
6.6959,0.6792,0.000
6.6996,0.6792,0.000
6.7032,0.6792,0.000
6.7069,0.6793,0.000
6.7106,0.6793,0.000
6.7142,0.6793,0.000
6.7179,0.6793,0.000
6.7216,0.6793,0.000
6.7252,0.6793,0.000
6.7289,0.6794,0.000
6.7326,0.6794,0.000
6.7362,0.6794,0.000
6.7399,0.6794,0.000
6.7436,0.6794,0.000
6.7472,0.6794,0.000
6.7509,0.6795,0.000
6.7546,0.6795,0.000
6.7583,0.6795,0.000
6.7619,0.6795,0.000
6.7656,0.6795,0.000
6.7693,0.6795,0.000
6.7729,0.6795,0.000
6.7766,0.6796,0.000
6.7803,0.6796,0.000
6.7839,0.6796,0.000
6.7876,0.6796,0.000
6.7913,0.6796,0.000
6.7949,0.6796,0.000
6.7986,0.6797,0.000
6.8023,0.6797,0.000
6.8059,0.6797,0.000
6.8096,0.6797,0.000
6.8133,0.6797,0.000
6.8169,0.6797,0.000
6.8206,0.6798,0.000
6.8243,0.6798,0.000
6.8279,0.6798,0.000
6.8316,0.6798,0.000
6.8353,0.6798,0.000
6.8389,0.6798,0.000
6.8426,0.6799,0.000
6.8463,0.6799,0.000
6.8499,0.6799,0.000
6.8536,0.6799,0.000
6.8573,0.6799,0.000
6.8610,0.6800,0.000
6.8646,0.6800,0.000
6.8683,0.6800,0.000
6.8720,0.6800,0.000
6.8756,0.6800,0.000
6.8793,0.6801,0.000
6.8830,0.6801,0.000
6.8866,0.6801,0.000
6.8903,0.6801,0.000
6.8940,0.6801,0.000
6.8976,0.6802,0.000
6.9013,0.6802,0.000
6.9050,0.6802,0.000
6.9086,0.6802,0.000
6.9123,0.6802,0.000
6.9160,0.6803,0.000
6.9196,0.6803,0.000
6.9233,0.6803,0.000
6.9270,0.6803,0.000
6.9306,0.6803,0.000
6.9343,0.6804,0.000
6.9380,0.6804,0.000
6.9416,0.6804,0.000
6.9453,0.6804,0.000
6.9490,0.6804,0.000
6.9527,0.6805,0.000
6.9563,0.6805,0.000
6.9600,0.6805,0.000
6.9637,0.6805,0.000
6.9673,0.6805,0.000
6.9710,0.6806,0.000
6.9747,0.6806,0.000
6.9783,0.6806,0.000
6.9820,0.6806,0.000
6.9857,0.6806,0.000
6.9893,0.6807,0.000
6.9930,0.6807,0.000
6.9967,0.6807,0.000
7.0003,0.6807,0.000
7.0040,0.6807,0.000
7.0077,0.6808,0.000
7.0113,0.6808,0.000
7.0150,0.6808,0.000
7.0187,0.6808,0.000
7.0223,0.6808,0.000
7.0260,0.6809,0.000
7.0297,0.6809,0.000
7.0333,0.6809,0.000
7.0370,0.6809,0.000
7.0407,0.6809,0.000
7.0443,0.6810,0.000
7.0480,0.6810,0.000
7.0517,0.6810,0.000
7.0554,0.6810,0.000
7.0590,0.6810,0.000
7.0627,0.6811,0.000
7.0664,0.6811,0.000
7.0700,0.6811,0.000
7.0737,0.6811,0.000
7.0774,0.6811,0.000
7.0810,0.6812,0.000
7.0847,0.6812,0.000
7.0884,0.6812,0.000
7.0920,0.6812,0.000
7.0957,0.6812,0.000
7.0994,0.6813,0.000
7.1030,0.6813,0.000
7.1067,0.6813,0.000
7.1104,0.6813,0.000
7.1140,0.6813,0.000
7.1177,0.6814,0.000
7.1214,0.6814,0.000
7.1250,0.6814,0.000
7.1287,0.6814,0.000
7.1324,0.6814,0.000
7.1360,0.6815,0.000
7.1397,0.6815,0.000
7.1434,0.6815,0.000
7.1470,0.6815,0.000
7.1507,0.6815,0.000
7.1544,0.6816,0.000
7.1581,0.6816,0.000
7.1617,0.6816,0.000
7.1654,0.6816,0.000
7.1691,0.6816,0.000
7.1727,0.6817,0.000
7.1764,0.6817,0.000
7.1801,0.6817,0.000
7.1837,0.6817,0.000
7.1874,0.6817,0.000
7.1911,0.6818,0.000
7.1947,0.6818,0.000
7.1984,0.6818,0.000
7.2021,0.6818,0.000
7.2057,0.6818,0.000
7.2094,0.6819,0.000
7.2131,0.6819,0.000
7.2167,0.6819,0.000
7.2204,0.6819,0.000
7.2241,0.6819,0.000
7.2277,0.6819,0.000
7.2314,0.6819,0.000
7.2351,0.6819,0.000
7.2387,0.6819,0.000
7.2424,0.6819,0.000
7.2461,0.6819,0.000
7.2497,0.6819,0.000
7.2534,0.6819,0.000
7.2571,0.6819,0.000
7.2608,0.6819,0.000
7.2644,0.6819,0.000
7.2681,0.6819,0.000
7.2718,0.6819,0.000
7.2754,0.6819,0.000
7.2791,0.6819,0.000
7.2828,0.6819,0.000
7.2864,0.6819,0.000
7.2901,0.6819,0.000
7.2938,0.6819,0.000
7.2974,0.6819,0.000
7.3011,0.6819,0.000
7.3048,0.6819,0.000
7.3084,0.6819,0.000
7.3121,0.6819,0.000
7.3158,0.6819,0.000
7.3194,0.6819,0.000
7.3231,0.6819,0.000
7.3268,0.6819,0.000
7.3304,0.6819,0.000
7.3341,0.6819,0.000
7.3378,0.6819,0.000
7.3414,0.6819,0.000
7.3451,0.6819,0.000
7.3488,0.6819,0.000
7.3525,0.6819,0.000
7.3561,0.6819,0.000
7.3598,0.6819,0.000
7.3635,0.6819,0.000
7.3671,0.6819,0.000
7.3708,0.6819,0.000
7.3745,0.6819,0.000
7.3781,0.6819,0.000
7.3818,0.6819,0.000
7.3855,0.6819,0.000
7.3891,0.6819,0.000
7.3928,0.6819,0.000
7.3965,0.6819,0.000
7.4001,0.6819,0.000
7.4038,0.6819,0.000
7.4075,0.6819,0.000
7.4111,0.6819,0.000
7.4148,0.6819,0.000
7.4185,0.6819,0.000
7.4221,0.6819,0.000
7.4258,0.6819,0.000
7.4295,0.6819,0.000
7.4331,0.6819,0.000
7.4368,0.6819,0.000
7.4405,0.6819,0.000
7.4441,0.6819,0.000
7.4478,0.6819,0.000
7.4515,0.6819,0.000
7.4552,0.6819,0.000
7.4588,0.6819,0.000
7.4625,0.6819,0.000
7.4662,0.6819,0.000
7.4698,0.6819,0.000
7.4735,0.6819,0.000
7.4772,0.6819,0.000
7.4808,0.6819,0.000
7.4845,0.6819,0.000
7.4882,0.6819,0.000
7.4918,0.6819,0.000
7.4955,0.6819,0.000
7.4992,0.6819,0.000
7.5028,0.6819,0.000
7.5065,0.6819,0.000
7.5102,0.6819,0.000
7.5138,0.6819,0.000
7.5175,0.6819,0.000
7.5212,0.6819,0.000
7.5248,0.6819,0.000
7.5285,0.6819,0.000
7.5322,0.6819,0.000
7.5358,0.6819,0.000
7.5395,0.6819,0.000
7.5432,0.6819,0.000
7.5468,0.6819,0.000
7.5505,0.6819,0.000
7.5542,0.6819,0.000
7.5579,0.6819,0.000
7.5615,0.6819,0.000
7.5652,0.6819,0.000
7.5689,0.6819,0.000
7.5725,0.6819,0.000
7.5762,0.6819,0.000
7.5799,0.6819,0.000
7.5835,0.6819,0.000
7.5872,0.6819,0.000
7.5909,0.6819,0.000
7.5945,0.6819,0.000
7.5982,0.6819,0.000
7.6019,0.6819,0.000
7.6055,0.6819,0.000
7.6092,0.6819,0.000
7.6129,0.6819,0.000
7.6165,0.6819,0.000
7.6202,0.6819,0.000
7.6239,0.6819,0.000
7.6275,0.6819,0.000
7.6312,0.6819,0.000
7.6349,0.6819,0.000
7.6385,0.6819,0.000
7.6422,0.6819,0.000
7.6459,0.6819,0.000
7.6495,0.6819,0.000
7.6532,0.6819,0.000
7.6569,0.6819,0.000
7.6606,0.6819,0.000
7.6642,0.6819,0.000
7.6679,0.6819,0.000
7.6716,0.6819,0.000
7.6752,0.6819,0.000
7.6789,0.6819,0.000
7.6826,0.6819,0.000
7.6862,0.6819,0.000
7.6899,0.6818,0.000
7.6936,0.6818,0.000
7.6972,0.6818,0.000
7.7009,0.6817,0.000
7.7046,0.6817,0.000
7.7082,0.6817,0.000
7.7119,0.6816,0.000
7.7156,0.6816,0.000
7.7192,0.6816,0.000
7.7229,0.6815,0.000
7.7266,0.6815,0.000
7.7302,0.6815,0.000
7.7339,0.6814,0.000
7.7376,0.6814,0.000
7.7412,0.6814,0.000
7.7449,0.6813,0.000
7.7486,0.6813,0.000
7.7523,0.6813,0.000
7.7559,0.6812,0.000
7.7596,0.6812,0.000
7.7633,0.6812,0.000
7.7669,0.6811,0.000
7.7706,0.6811,0.000
7.7743,0.6811,0.000
7.7779,0.6811,0.000
7.7816,0.6810,0.000
7.7853,0.6810,0.000
7.7889,0.6810,0.000
7.7926,0.6809,0.000
7.7963,0.6809,0.000
7.7999,0.6809,0.000
7.8036,0.6808,0.000
7.8073,0.6808,0.000
7.8109,0.6808,0.000
7.8146,0.6807,0.000
7.8183,0.6807,0.000
7.8219,0.6807,0.000
7.8256,0.6806,0.000
7.8293,0.6806,0.000
7.8329,0.6806,0.000
7.8366,0.6805,0.000
7.8403,0.6805,0.000
7.8439,0.6805,0.000
7.8476,0.6804,0.000
7.8513,0.6804,0.000
7.8550,0.6804,0.000
7.8586,0.6803,0.000
7.8623,0.6803,0.000
7.8660,0.6803,0.000
7.8696,0.6802,0.000
7.8733,0.6802,0.000
7.8770,0.6802,0.000
7.8806,0.6801,0.000
7.8843,0.6801,0.000
7.8880,0.6801,0.000
7.8916,0.6800,0.000
7.8953,0.6800,0.000
7.8990,0.6800,0.000
7.9026,0.6799,0.000
7.9063,0.6799,0.000
7.9100,0.6799,0.000
7.9136,0.6798,0.000
7.9173,0.6798,0.000
7.9210,0.6798,0.000
7.9246,0.6797,0.000
7.9283,0.6797,0.000
7.9320,0.6797,0.000
7.9356,0.6796,0.000
7.9393,0.6796,0.000
7.9430,0.6796,0.000
7.9466,0.6795,0.000
7.9503,0.6795,0.000
7.9540,0.6795,0.000
7.9577,0.6794,0.000
7.9613,0.6794,0.000
7.9650,0.6794,0.000
7.9687,0.6793,0.000
7.9723,0.6793,0.000
7.9760,0.6793,0.000
7.9797,0.6792,0.000
7.9833,0.6792,0.000
7.9870,0.6792,0.000
7.9907,0.6791,0.000
7.9943,0.6791,0.000
7.9980,0.6791,0.000
8.0017,0.6790,0.000
8.0053,0.6790,0.000
8.0090,0.6790,0.000
8.0127,0.6789,0.000
8.0163,0.6789,0.000
8.0200,0.6789,0.000
8.0237,0.6788,0.000
8.0273,0.6788,0.000
8.0310,0.6788,0.000
8.0347,0.6787,0.000
8.0383,0.6787,0.000
8.0420,0.6787,0.000
8.0457,0.6786,0.000
8.0493,0.6786,0.000
8.0530,0.6786,0.000
8.0567,0.6785,0.000
8.0604,0.6785,0.000
8.0640,0.6785,0.000
8.0677,0.6784,0.000
8.0714,0.6784,0.000
8.0750,0.6784,0.000
8.0787,0.6784,0.000
8.0824,0.6784,0.000
8.0860,0.6784,0.000
8.0897,0.6783,0.000
8.0934,0.6783,0.000
8.0970,0.6783,0.000
8.1007,0.6783,0.000
8.1044,0.6783,0.000
8.1080,0.6783,0.000
8.1117,0.6782,0.000
8.1154,0.6782,0.000
8.1190,0.6782,0.000
8.1227,0.6782,0.000
8.1264,0.6782,0.000
8.1300,0.6782,0.000
8.1337,0.6782,0.000
8.1374,0.6781,0.000
8.1410,0.6781,0.000
8.1447,0.6781,0.000
8.1484,0.6781,0.000
8.1521,0.6781,0.000
8.1557,0.6781,0.000
8.1594,0.6780,0.000
8.1631,0.6780,0.000
8.1667,0.6780,0.000
8.1704,0.6780,0.000
8.1741,0.6780,0.000
8.1777,0.6780,0.000
8.1814,0.6780,0.000
8.1851,0.6779,0.000
8.1887,0.6779,0.000
8.1924,0.6779,0.000
8.1961,0.6779,0.000
8.1997,0.6779,0.000
8.2034,0.6779,0.000
8.2071,0.6778,0.000
8.2107,0.6778,0.000
8.2144,0.6778,0.000
8.2181,0.6778,0.000
8.2217,0.6778,0.000
8.2254,0.6778,0.000
8.2291,0.6778,0.000
8.2327,0.6777,0.000
8.2364,0.6777,0.000
8.2401,0.6777,0.000
8.2437,0.6777,0.000
8.2474,0.6777,0.000
8.2511,0.6777,0.000
8.2548,0.6777,0.000
8.2584,0.6776,0.000
8.2621,0.6776,0.000
8.2658,0.6776,0.000
8.2694,0.6776,0.000
8.2731,0.6776,0.000
8.2768,0.6776,0.000
8.2804,0.6775,0.000
8.2841,0.6775,0.000
8.2878,0.6775,0.000
8.2914,0.6775,0.000
8.2951,0.6775,0.000
8.2988,0.6775,0.000
8.3024,0.6775,0.000
8.3061,0.6774,0.000
8.3098,0.6774,0.000
8.3134,0.6774,0.000
8.3171,0.6774,0.000
8.3208,0.6774,0.000
8.3244,0.6774,0.000
8.3281,0.6773,0.000
8.3318,0.6773,0.000
8.3354,0.6773,0.000
8.3391,0.6773,0.000
8.3428,0.6773,0.000
8.3464,0.6773,0.000
8.3501,0.6773,0.000
8.3538,0.6772,0.000
8.3575,0.6772,0.000
8.3611,0.6772,0.000
8.3648,0.6772,0.000
8.3685,0.6772,0.000
8.3721,0.6772,0.000
8.3758,0.6771,0.000
8.3795,0.6771,0.000
8.3831,0.6771,0.000
8.3868,0.6771,0.000
8.3905,0.6771,0.000
8.3941,0.6771,0.000
8.3978,0.6771,0.000
8.4015,0.6770,0.000
8.4051,0.6770,0.000
8.4088,0.6770,0.000
8.4125,0.6770,0.000
8.4161,0.6770,0.000
8.4198,0.6770,0.000
8.4235,0.6770,0.000
8.4271,0.6770,0.000
8.4308,0.6770,0.000
8.4345,0.6770,0.000
8.4381,0.6770,0.000
8.4418,0.6770,0.000
8.4455,0.6770,0.000
8.4491,0.6769,0.000
8.4528,0.6769,0.000
8.4565,0.6769,0.000
8.4602,0.6769,0.000
8.4638,0.6769,0.000
8.4675,0.6769,0.000
8.4712,0.6769,0.000
8.4748,0.6769,0.000
8.4785,0.6769,0.000
8.4822,0.6769,0.000
8.4858,0.6769,0.000
8.4895,0.6769,0.000
8.4932,0.6769,0.000
8.4968,0.6769,0.000
8.5005,0.6769,0.000
8.5042,0.6769,0.000
8.5078,0.6769,0.000
8.5115,0.6769,0.000
8.5152,0.6769,0.000
8.5188,0.6768,0.000
8.5225,0.6768,0.000
8.5262,0.6768,0.000
8.5298,0.6768,0.000
8.5335,0.6768,0.000
8.5372,0.6768,0.000
8.5408,0.6768,0.000
8.5445,0.6768,0.000
8.5482,0.6768,0.000
8.5519,0.6768,0.000
8.5555,0.6768,0.000
8.5592,0.6768,0.000
8.5629,0.6768,0.000
8.5665,0.6768,0.000
8.5702,0.6768,0.000
8.5739,0.6768,0.000
8.5775,0.6768,0.000
8.5812,0.6768,0.000
8.5849,0.6768,0.000
8.5885,0.6767,0.000
8.5922,0.6767,0.000
8.5959,0.6767,0.000
8.5995,0.6767,0.000
8.6032,0.6767,0.000
8.6069,0.6767,0.000
8.6105,0.6767,0.000
8.6142,0.6767,0.000
8.6179,0.6767,0.000
8.6215,0.6767,0.000
8.6252,0.6767,0.000
8.6289,0.6767,0.000
8.6325,0.6767,0.000
8.6362,0.6767,0.000
8.6399,0.6767,0.000
8.6435,0.6767,0.000
8.6472,0.6767,0.000
8.6509,0.6767,0.000
8.6546,0.6767,0.000
8.6582,0.6766,0.000
8.6619,0.6766,0.000
8.6656,0.6766,0.000
8.6692,0.6766,0.000
8.6729,0.6766,0.000
8.6766,0.6766,0.000
8.6802,0.6766,0.000
8.6839,0.6766,0.000
8.6876,0.6766,0.000
8.6912,0.6766,0.000
8.6949,0.6766,0.000
8.6986,0.6766,0.000
8.7022,0.6766,0.000
8.7059,0.6766,0.000
8.7096,0.6766,0.000
8.7132,0.6766,0.000
8.7169,0.6766,0.000
8.7206,0.6766,0.000
8.7242,0.6766,0.000
8.7279,0.6765,0.000
8.7316,0.6765,0.000
8.7352,0.6765,0.000
8.7389,0.6765,0.000
8.7426,0.6765,0.000
8.7462,0.6765,0.000
8.7499,0.6765,0.000
8.7536,0.6765,0.000
8.7573,0.6765,0.000
8.7609,0.6765,0.000
8.7646,0.6765,0.000
8.7683,0.6765,0.000
8.7719,0.6765,0.000
8.7756,0.6765,0.000
8.7793,0.6765,0.000
8.7829,0.6765,0.000
8.7866,0.6765,0.000
8.7903,0.6765,0.000
8.7939,0.6765,0.000
8.7976,0.6764,0.000
8.8013,0.6764,0.000
8.8049,0.6764,0.000
8.8086,0.6764,0.000
8.8123,0.6764,0.000
8.8159,0.6764,0.000
8.8196,0.6764,0.000
8.8233,0.6764,0.000
8.8269,0.6764,0.000
8.8306,0.6764,0.000
8.8343,0.6764,0.000
8.8379,0.6764,0.000
8.8416,0.6764,0.000
8.8453,0.6764,0.000
8.8489,0.6764,0.000
8.8526,0.6764,0.000
8.8563,0.6764,0.000
8.8600,0.6764,0.000
8.8636,0.6763,0.000
8.8673,0.6763,0.000
8.8710,0.6763,0.000
8.8746,0.6763,0.000
8.8783,0.6763,0.000
8.8820,0.6763,0.000
8.8856,0.6763,0.000
8.8893,0.6763,0.000
8.8930,0.6763,0.000
8.8966,0.6763,0.000
8.9003,0.6763,0.000
8.9040,0.6763,0.000
8.9076,0.6763,0.000
8.9113,0.6763,0.000
8.9150,0.6763,0.000
8.9186,0.6763,0.000
8.9223,0.6763,0.000
8.9260,0.6763,0.000
8.9296,0.6763,0.000
8.9333,0.6763,0.000
8.9370,0.6763,0.000
8.9406,0.6763,0.000
8.9443,0.6763,0.000
8.9480,0.6763,0.000
8.9517,0.6763,0.000
8.9553,0.6763,0.000
8.9590,0.6763,0.000
8.9627,0.6763,0.000
8.9663,0.6763,0.000
8.9700,0.6763,0.000
8.9737,0.6763,0.000
8.9773,0.6763,0.000
8.9810,0.6763,0.000
8.9847,0.6763,0.000
8.9883,0.6763,0.000
8.9920,0.6763,0.000
8.9957,0.6763,0.000
8.9993,0.6763,0.000
9.0030,0.6763,0.000
9.0067,0.6763,0.000
9.0103,0.6763,0.000
9.0140,0.6763,0.000
9.0177,0.6763,0.000
9.0213,0.6763,0.000
9.0250,0.6763,0.000
9.0287,0.6763,0.000
9.0323,0.6763,0.000
9.0360,0.6763,0.000
9.0397,0.6763,0.000
9.0433,0.6763,0.000
9.0470,0.6763,0.000
9.0507,0.6763,0.000
9.0544,0.6763,0.000
9.0580,0.6763,0.000
9.0617,0.6763,0.000
9.0654,0.6763,0.000
9.0690,0.6763,0.000
9.0727,0.6763,0.000
9.0764,0.6763,0.000
9.0800,0.6763,0.000
9.0837,0.6763,0.000
9.0874,0.6763,0.000
9.0910,0.6763,0.000
9.0947,0.6763,0.000
9.0984,0.6763,0.000
9.1020,0.6763,0.000
9.1057,0.6763,0.000
9.1094,0.6763,0.000
9.1130,0.6763,0.000
9.1167,0.6763,0.000
9.1204,0.6763,0.000
9.1240,0.6763,0.000
9.1277,0.6763,0.000
9.1314,0.6763,0.000
9.1350,0.6763,0.000
9.1387,0.6763,0.000
9.1424,0.6763,0.000
9.1460,0.6763,0.000
9.1497,0.6763,0.000
9.1534,0.6763,0.000
9.1571,0.6763,0.000
9.1607,0.6763,0.000
9.1644,0.6763,0.000
9.1681,0.6763,0.000
9.1717,0.6763,0.000
9.1754,0.6763,0.000
9.1791,0.6763,0.000
9.1827,0.6763,0.000
9.1864,0.6763,0.000
9.1901,0.6763,0.000
9.1937,0.6763,0.000
9.1974,0.6763,0.000
9.2011,0.6763,0.000
9.2047,0.6763,0.000
9.2084,0.6763,0.000
9.2121,0.6763,0.000
9.2157,0.6763,0.000
9.2194,0.6763,0.000
9.2231,0.6763,0.000
9.2267,0.6763,0.000
9.2304,0.6763,0.000
9.2341,0.6763,0.000
9.2377,0.6763,0.000
9.2414,0.6763,0.000
9.2451,0.6763,0.000
9.2487,0.6763,0.000
9.2524,0.6763,0.000
9.2561,0.6763,0.000
9.2598,0.6763,0.000
9.2634,0.6763,0.000
9.2671,0.6763,0.000
9.2708,0.6763,0.000
9.2744,0.6763,0.000
9.2781,0.6763,0.000
9.2818,0.6763,0.000
9.2854,0.6763,0.000
9.2891,0.6763,0.000
9.2928,0.6763,0.000
9.2964,0.6762,0.000
9.3001,0.6762,0.000
9.3038,0.6762,0.000
9.3074,0.6761,0.000
9.3111,0.6761,0.000
9.3148,0.6761,0.000
9.3184,0.6760,0.000
9.3221,0.6760,0.000
9.3258,0.6760,0.000
9.3294,0.6760,0.000
9.3331,0.6759,0.000
9.3368,0.6759,0.000
9.3404,0.6759,0.000
9.3441,0.6758,0.000
9.3478,0.6758,0.000
9.3515,0.6758,0.000
9.3551,0.6757,0.000
9.3588,0.6757,0.000
9.3625,0.6757,0.000
9.3661,0.6756,0.000
9.3698,0.6756,0.000
9.3735,0.6756,0.000
9.3771,0.6755,0.000
9.3808,0.6755,0.000
9.3845,0.6755,0.000
9.3881,0.6754,0.000
9.3918,0.6754,0.000
9.3955,0.6754,0.000
9.3991,0.6753,0.000
9.4028,0.6753,0.000
9.4065,0.6753,0.000
9.4101,0.6752,0.000
9.4138,0.6752,0.000
9.4175,0.6752,0.000
9.4211,0.6752,0.000
9.4248,0.6751,0.000
9.4285,0.6751,0.000
9.4321,0.6751,0.000
9.4358,0.6750,0.000
9.4395,0.6750,0.000
9.4431,0.6750,0.000
9.4468,0.6749,0.000
9.4505,0.6749,0.000
9.4542,0.6749,0.000
9.4578,0.6748,0.000
9.4615,0.6748,0.000
9.4652,0.6748,0.000
9.4688,0.6747,0.000
9.4725,0.6747,0.000
9.4762,0.6747,0.000
9.4798,0.6746,0.000
9.4835,0.6746,0.000
9.4872,0.6746,0.000
9.4908,0.6745,0.000
9.4945,0.6745,0.000
9.4982,0.6745,0.000
9.5018,0.6745,0.000
9.5055,0.6744,0.000
9.5092,0.6744,0.000
9.5128,0.6744,0.000
9.5165,0.6743,0.000
9.5202,0.6743,0.000
9.5238,0.6743,0.000
9.5275,0.6742,0.000
9.5312,0.6742,0.000
9.5348,0.6742,0.000
9.5385,0.6741,0.000
9.5422,0.6741,0.000
9.5458,0.6741,0.000
9.5495,0.6740,0.000
9.5532,0.6740,0.000
9.5569,0.6740,0.000
9.5605,0.6739,0.000
9.5642,0.6739,0.000
9.5679,0.6739,0.000
9.5715,0.6738,0.000
9.5752,0.6738,0.000
9.5789,0.6738,0.000
9.5825,0.6738,0.000
9.5862,0.6737,0.000
9.5899,0.6737,0.000
9.5935,0.6737,0.000
9.5972,0.6736,0.000
9.6009,0.6736,0.000
9.6045,0.6736,0.000
9.6082,0.6735,0.000
9.6119,0.6735,0.000
9.6155,0.6734,0.000
9.6192,0.6732,0.000
9.6229,0.6731,0.000
9.6265,0.6729,0.000
9.6302,0.6728,0.000
9.6339,0.6726,0.000
9.6375,0.6725,0.000
9.6412,0.6723,0.000
9.6449,0.6722,0.000
9.6485,0.6720,0.000
9.6522,0.6719,0.000
9.6559,0.6717,0.000
9.6596,0.6716,0.000
9.6632,0.6715,0.000
9.6669,0.6713,0.000
9.6706,0.6712,0.000
9.6742,0.6710,0.000
9.6779,0.6709,0.000
9.6816,0.6707,0.000
9.6852,0.6706,0.000
9.6889,0.6704,0.000
9.6926,0.6703,0.000
9.6962,0.6701,0.000
9.6999,0.6700,0.000
9.7036,0.6698,0.000
9.7072,0.6697,0.000
9.7109,0.6695,0.000
9.7146,0.6694,0.000
9.7182,0.6692,0.000
9.7219,0.6691,0.000
9.7256,0.6689,0.000
9.7292,0.6688,0.000
9.7329,0.6686,0.000
9.7366,0.6685,0.000
9.7402,0.6683,0.000
9.7439,0.6682,0.000
9.7476,0.6680,0.000
9.7513,0.6679,0.000
9.7549,0.6677,0.000
9.7586,0.6676,0.000
9.7623,0.6674,0.000
9.7659,0.6673,0.000
9.7696,0.6671,0.000
9.7733,0.6670,0.000
9.7769,0.6668,0.000
9.7806,0.6667,0.000
9.7843,0.6665,0.000
9.7879,0.6664,0.000
9.7916,0.6662,0.000
9.7953,0.6661,0.000
9.7989,0.6660,0.000
9.8026,0.6658,0.000
9.8063,0.6657,0.000
9.8099,0.6655,0.000
9.8136,0.6654,0.000
9.8173,0.6652,0.000
9.8209,0.6651,0.000
9.8246,0.6649,0.000
9.8283,0.6648,0.000
9.8319,0.6646,0.000
9.8356,0.6645,0.000
9.8393,0.6643,0.000
9.8429,0.6641,0.000
9.8466,0.6639,0.000
9.8503,0.6636,0.000
9.8540,0.6634,0.000
9.8576,0.6632,0.000
9.8613,0.6629,0.000
9.8650,0.6627,0.000
9.8686,0.6625,0.000
9.8723,0.6622,0.000
9.8760,0.6620,0.000
9.8796,0.6618,0.000
9.8833,0.6616,0.000
9.8870,0.6613,0.000
9.8906,0.6611,0.000
9.8943,0.6609,0.000
9.8980,0.6606,0.000
9.9016,0.6604,0.000
9.9053,0.6602,0.000
9.9090,0.6599,0.000
9.9126,0.6597,0.000
9.9163,0.6595,0.000
9.9200,0.6593,0.000
9.9236,0.6590,0.000
9.9273,0.6588,0.000
9.9310,0.6586,0.000
9.9346,0.6583,0.000
9.9383,0.6581,0.000
9.9420,0.6579,0.000
9.9456,0.6576,0.000
9.9493,0.6574,0.000
9.9530,0.6572,0.000
9.9567,0.6570,0.000
9.9603,0.6567,0.000
9.9640,0.6565,0.000
9.9677,0.6563,0.000
9.9713,0.6560,0.000
9.9750,0.6558,0.000
9.9787,0.6556,0.000
9.9823,0.6554,0.000
9.9860,0.6551,0.000
9.9897,0.6549,0.000
9.9933,0.6547,0.000
9.9970,0.6544,0.000
10.0007,0.6542,0.000
10.0043,0.6540,0.000
10.0080,0.6537,0.000
10.0117,0.6535,0.000
10.0153,0.6533,0.000
10.0190,0.6531,0.000
10.0227,0.6525,0.000
10.0263,0.6520,0.000
10.0300,0.6514,0.000
10.0337,0.6509,0.000
10.0373,0.6504,0.000
10.0410,0.6498,0.000
10.0447,0.6493,0.000
10.0483,0.6487,0.000
10.0520,0.6482,0.000
10.0557,0.6477,0.000
10.0594,0.6471,0.000
10.0630,0.6466,0.000
10.0667,0.6460,0.000
10.0704,0.6455,0.000
10.0740,0.6450,0.000
10.0777,0.6444,0.000
10.0814,0.6439,0.000
10.0850,0.6434,0.000
10.0887,0.6428,0.000
10.0924,0.6423,0.000
10.0960,0.6417,0.000
10.0997,0.6412,0.000
10.1034,0.6407,0.000
10.1070,0.6401,0.000
10.1107,0.6396,0.000
10.1144,0.6390,0.000
10.1180,0.6385,0.000
10.1217,0.6380,0.000
10.1254,0.6374,0.000
10.1290,0.6369,0.000
10.1327,0.6363,0.000
10.1364,0.6358,0.000
10.1400,0.6353,0.000
10.1437,0.6347,0.000
10.1474,0.6342,0.000
10.1511,0.6337,0.000
10.1547,0.6331,0.000
10.1584,0.6326,0.000
10.1621,0.6320,0.000
10.1657,0.6315,0.000
10.1694,0.6310,0.000
10.1731,0.6304,0.000
10.1767,0.6299,0.000
10.1804,0.6293,0.000
10.1841,0.6288,0.000
10.1877,0.6282,0.000
10.1914,0.6276,0.000
10.1951,0.6270,0.000
10.1987,0.6264,0.000
10.2024,0.6259,0.000
10.2061,0.6253,0.000
10.2097,0.6247,0.000
10.2134,0.6241,0.000
10.2171,0.6235,0.000
10.2207,0.6230,0.000
10.2244,0.6224,0.000
10.2281,0.6218,0.000
10.2317,0.6212,0.000
10.2354,0.6206,0.000
10.2391,0.6201,0.000
10.2427,0.6195,0.000
10.2464,0.6189,0.000
10.2501,0.6183,0.000
10.2538,0.6177,0.000
10.2574,0.6171,0.000
10.2611,0.6166,0.000
10.2648,0.6160,0.000
10.2684,0.6154,0.000
10.2721,0.6148,0.000
10.2758,0.6142,0.000
10.2794,0.6137,0.000
10.2831,0.6131,0.000
10.2868,0.6125,0.000
10.2904,0.6119,0.000
10.2941,0.6113,0.000
10.2978,0.6107,0.000
10.3014,0.6102,0.000
10.3051,0.6096,0.000
10.3088,0.6090,0.000
10.3124,0.6084,0.000
10.3161,0.6078,0.000
10.3198,0.6073,0.000
10.3234,0.6067,0.000
10.3271,0.6061,0.000
10.3308,0.6055,0.000
10.3344,0.6049,0.000
10.3381,0.6043,0.000
10.3418,0.6038,0.000
10.3454,0.6032,0.000
10.3491,0.6026,0.000
10.3528,0.6020,0.000
10.3565,0.6014,0.000
10.3601,0.6009,0.000
10.3638,0.6003,0.000
10.3675,0.5997,0.000
10.3711,0.5991,0.000
10.3748,0.5985,0.000
10.3785,0.5979,0.000
10.3821,0.5974,0.000
10.3858,0.5968,0.000
10.3895,0.5962,0.000
10.3931,0.5956,0.000
10.3968,0.5950,0.000
10.4005,0.5945,0.000
10.4041,0.5939,0.000
10.4078,0.5933,0.000
10.4115,0.5927,0.000
10.4151,0.5920,0.000
10.4188,0.5913,0.000
10.4225,0.5906,0.000
10.4261,0.5898,0.000
10.4298,0.5891,0.000
10.4335,0.5883,0.000
10.4371,0.5876,0.000
10.4408,0.5868,0.000
10.4445,0.5861,0.000
10.4481,0.5854,0.000
10.4518,0.5846,0.000
10.4555,0.5839,0.000
10.4592,0.5831,0.000
10.4628,0.5824,0.000
10.4665,0.5817,0.000
10.4702,0.5809,0.000
10.4738,0.5802,0.000
10.4775,0.5794,0.000
10.4812,0.5787,0.000
10.4848,0.5780,0.000
10.4885,0.5772,0.000
10.4922,0.5765,0.000
10.4958,0.5757,0.000
10.4995,0.5750,0.000
10.5032,0.5742,0.000
10.5068,0.5735,0.000
10.5105,0.5728,0.000
10.5142,0.5720,0.000
10.5178,0.5713,0.000
10.5215,0.5705,0.000
10.5252,0.5698,0.000
10.5288,0.5691,0.000
10.5325,0.5683,0.000
10.5362,0.5674,0.000
10.5398,0.5663,0.000
10.5435,0.5651,0.000
10.5472,0.5640,0.000
10.5509,0.5628,0.000
10.5545,0.5616,0.000
10.5582,0.5605,0.000
10.5619,0.5593,0.000
10.5655,0.5581,0.000
10.5692,0.5570,0.000
10.5729,0.5558,0.000
10.5765,0.5546,0.000
10.5802,0.5535,0.000
10.5839,0.5523,0.000
10.5875,0.5512,0.000
10.5912,0.5500,0.000
10.5949,0.5488,0.000
10.5985,0.5477,0.000
10.6022,0.5465,0.000
10.6059,0.5453,0.000
10.6095,0.5442,0.000
10.6132,0.5430,0.000
10.6169,0.5420,0.000
10.6205,0.5412,0.000
10.6242,0.5404,0.000
10.6279,0.5395,0.000
10.6315,0.5387,0.000
10.6352,0.5379,0.000
10.6389,0.5371,0.000
10.6425,0.5362,0.000
10.6462,0.5354,0.000
10.6499,0.5346,0.000
10.6536,0.5338,0.000
10.6572,0.5329,0.000
10.6609,0.5321,0.000
10.6646,0.5313,0.000
10.6682,0.5305,0.000
10.6719,0.5296,0.000
10.6756,0.5288,0.000
10.6792,0.5280,0.000
10.6829,0.5271,0.000
10.6866,0.5263,0.000
10.6902,0.5255,0.000
10.6939,0.5247,0.000
10.6976,0.5238,0.000
10.7012,0.5230,0.000
10.7049,0.5222,0.000
10.7086,0.5214,0.000
10.7122,0.5205,0.000
10.7159,0.5197,0.000
10.7196,0.5189,0.000
10.7232,0.5181,0.000
10.7269,0.5172,0.000
10.7306,0.5164,0.000
10.7342,0.5156,0.000
10.7379,0.5147,0.000
10.7416,0.5139,0.000
10.7452,0.5131,0.000
10.7489,0.5123,0.000
10.7526,0.5114,0.000
10.7563,0.5106,0.000
10.7599,0.5098,0.000
10.7636,0.5090,0.000
10.7673,0.5081,0.000
10.7709,0.5073,0.000
10.7746,0.5065,0.000
10.7783,0.5056,0.000
10.7819,0.5048,0.000
10.7856,0.5040,0.000
10.7893,0.5032,0.000
10.7929,0.5024,0.000
10.7966,0.5017,0.000
10.8003,0.5009,0.000
10.8039,0.5002,0.000
10.8076,0.4994,0.000
10.8113,0.4987,0.000
10.8149,0.4979,0.000
10.8186,0.4972,0.000
10.8223,0.4964,0.000
10.8259,0.4957,0.000
10.8296,0.4949,0.000
10.8333,0.4942,0.000
10.8369,0.4934,0.000
10.8406,0.4927,0.000
10.8443,0.4919,0.000
10.8479,0.4912,0.000
10.8516,0.4904,0.000
10.8553,0.4897,0.000
10.8590,0.4890,0.000
10.8626,0.4882,0.000
10.8663,0.4875,0.000
10.8700,0.4867,0.000
10.8736,0.4860,0.000
10.8773,0.4852,0.000
10.8810,0.4845,0.000
10.8846,0.4837,0.000
10.8883,0.4830,0.000
10.8920,0.4822,0.000
10.8956,0.4815,0.000
10.8993,0.4807,0.000
10.9030,0.4800,0.000
10.9066,0.4792,0.000
10.9103,0.4785,0.000
10.9140,0.4777,0.000
10.9176,0.4770,0.000
10.9213,0.4762,0.000
10.9250,0.4755,0.000
10.9286,0.4748,0.000
10.9323,0.4740,0.000
10.9360,0.4733,0.000
10.9396,0.4725,0.000
10.9433,0.4718,0.000
10.9470,0.4710,0.000
10.9507,0.4703,0.000
10.9543,0.4695,0.000
10.9580,0.4688,0.000
10.9617,0.4680,0.000
10.9653,0.4673,0.000
10.9690,0.4665,0.000
10.9727,0.4658,0.000
10.9763,0.4650,0.000
10.9800,0.4643,0.000
10.9837,0.4635,0.000
10.9873,0.4628,0.000
10.9910,0.4620,0.000
10.9947,0.4613,0.000
10.9983,0.4606,0.000
11.0020,0.4599,0.000
11.0057,0.4592,0.000
11.0093,0.4585,0.000
11.0130,0.4578,0.000
11.0167,0.4571,0.000
11.0203,0.4564,0.000
11.0240,0.4557,0.000
11.0277,0.4550,0.000
11.0313,0.4543,0.000
11.0350,0.4536,0.000
11.0387,0.4529,0.000
11.0423,0.4521,0.000
11.0460,0.4514,0.000
11.0497,0.4507,0.000
11.0534,0.4500,0.000
11.0570,0.4493,0.000
11.0607,0.4486,0.000
11.0644,0.4479,0.000
11.0680,0.4472,0.000
11.0717,0.4465,0.000
11.0754,0.4458,0.000
11.0790,0.4451,0.000
11.0827,0.4444,0.000
11.0864,0.4437,0.000
11.0900,0.4430,0.000
11.0937,0.4423,0.000
11.0974,0.4416,0.000
11.1010,0.4409,0.000
11.1047,0.4402,0.000
11.1084,0.4395,0.000
11.1120,0.4388,0.000
11.1157,0.4381,0.000
11.1194,0.4373,0.000
11.1230,0.4366,0.000
11.1267,0.4360,0.000
11.1304,0.4355,0.000
11.1340,0.4351,0.000
11.1377,0.4347,0.000
11.1414,0.4342,0.000
11.1450,0.4338,0.000
11.1487,0.4333,0.000
11.1524,0.4329,0.000
11.1561,0.4325,0.000
11.1597,0.4320,0.000
11.1634,0.4316,0.000
11.1671,0.4311,0.000
11.1707,0.4307,0.000
11.1744,0.4303,0.000
11.1781,0.4298,0.000
11.1817,0.4294,0.000
11.1854,0.4289,0.000
11.1891,0.4285,0.000
11.1927,0.4281,0.000
11.1964,0.4276,0.000
11.2001,0.4272,0.000
11.2037,0.4267,0.000
11.2074,0.4263,0.000
11.2111,0.4259,0.000
11.2147,0.4254,0.000
11.2184,0.4250,0.000
11.2221,0.4245,0.000
11.2257,0.4241,0.000
11.2294,0.4237,0.000
11.2331,0.4232,0.000
11.2367,0.4228,0.000
11.2404,0.4223,0.000
11.2441,0.4219,0.000
11.2477,0.4215,0.000
11.2514,0.4210,0.000
11.2551,0.4206,0.000
11.2588,0.4201,0.000
11.2624,0.4197,0.000
11.2661,0.4193,0.000
11.2698,0.4188,0.000
11.2734,0.4184,0.000
11.2771,0.4179,0.000
11.2808,0.4175,0.000
11.2844,0.4171,0.000
11.2881,0.4166,0.000
11.2918,0.4162,0.000
11.2954,0.4157,0.000
11.2991,0.4153,0.000
11.3028,0.4148,0.000
11.3064,0.4143,0.000
11.3101,0.4139,0.000
11.3138,0.4134,0.000
11.3174,0.4129,0.000
11.3211,0.4124,0.000
11.3248,0.4119,0.000
11.3284,0.4114,0.000
11.3321,0.4109,0.000
11.3358,0.4104,0.000
11.3394,0.4099,0.000
11.3431,0.4094,0.000
11.3468,0.4089,0.000
11.3505,0.4084,0.000
11.3541,0.4079,0.000
11.3578,0.4075,0.000
11.3615,0.4070,0.000
11.3651,0.4065,0.000
11.3688,0.4060,0.000
11.3725,0.4055,0.000
11.3761,0.4050,0.000
11.3798,0.4045,0.000
11.3835,0.4040,0.000
11.3871,0.4035,0.000
11.3908,0.4030,0.000
11.3945,0.4025,0.000
11.3981,0.4020,0.000
11.4018,0.4015,0.000
11.4055,0.4011,0.000
11.4091,0.4006,0.000
11.4128,0.4001,0.000
11.4165,0.3996,0.000
11.4201,0.3991,0.000
11.4238,0.3986,0.000
11.4275,0.3981,0.000
11.4311,0.3976,0.000
11.4348,0.3971,0.000
11.4385,0.3966,0.000
11.4421,0.3961,0.000
11.4458,0.3956,0.000
11.4495,0.3952,0.000
11.4532,0.3947,0.000
11.4568,0.3942,0.000
11.4605,0.3937,0.000
11.4642,0.3932,0.000
11.4678,0.3927,0.000
11.4715,0.3922,0.000
11.4752,0.3917,0.000
11.4788,0.3912,0.000
11.4825,0.3907,0.000
11.4862,0.3902,0.000
11.4898,0.3897,0.000
11.4935,0.3892,0.000
11.4972,0.3888,0.000
11.5008,0.3883,0.000
11.5045,0.3878,0.000
11.5082,0.3873,0.000
11.5118,0.3868,0.000
11.5155,0.3863,0.000
11.5192,0.3858,0.000
11.5228,0.3853,0.000
11.5265,0.3848,0.000
11.5302,0.3843,0.000
11.5338,0.3838,0.000
11.5375,0.3832,0.000
11.5412,0.3826,0.000
11.5448,0.3820,0.000
11.5485,0.3814,0.000
11.5522,0.3808,0.000
11.5559,0.3802,0.000
11.5595,0.3797,0.000
11.5632,0.3791,0.000
11.5669,0.3785,0.000
11.5705,0.3779,0.000
11.5742,0.3773,0.000
11.5779,0.3767,0.000
11.5815,0.3761,0.000
11.5852,0.3755,0.000
11.5889,0.3749,0.000
11.5925,0.3743,0.000
11.5962,0.3737,0.000
11.5999,0.3731,0.000
11.6035,0.3725,0.000
11.6072,0.3719,0.000
11.6109,0.3713,0.000
11.6145,0.3707,0.000
11.6182,0.3702,0.000
11.6219,0.3696,0.000
11.6255,0.3690,0.000
11.6292,0.3684,0.000
11.6329,0.3678,0.000
11.6365,0.3672,0.000
11.6402,0.3666,0.000
11.6439,0.3660,0.000
11.6475,0.3654,0.000
11.6512,0.3648,0.000
11.6549,0.3642,0.000
11.6586,0.3636,0.000
11.6622,0.3630,0.000
11.6659,0.3624,0.000
11.6696,0.3618,0.000
11.6732,0.3612,0.000
11.6769,0.3607,0.000
11.6806,0.3601,0.000
11.6842,0.3594,0.000
11.6879,0.3587,0.000
11.6916,0.3581,0.000
11.6952,0.3574,0.000
11.6989,0.3567,0.000
11.7026,0.3561,0.000
11.7062,0.3554,0.000
11.7099,0.3547,0.000
11.7136,0.3541,0.000
11.7172,0.3534,0.000
11.7209,0.3527,0.000
11.7246,0.3521,0.000
11.7282,0.3514,0.000
11.7319,0.3507,0.000
11.7356,0.3501,0.000
11.7392,0.3494,0.000
11.7429,0.3487,0.000
11.7466,0.3481,0.000
11.7503,0.3474,0.000
11.7539,0.3467,0.000
11.7576,0.3461,0.000
11.7613,0.3454,0.000
11.7649,0.3447,0.000
11.7686,0.3441,0.000
11.7723,0.3434,0.000
11.7759,0.3427,0.000
11.7796,0.3421,0.000
11.7833,0.3414,0.000
11.7869,0.3407,0.000
11.7906,0.3401,0.000
11.7943,0.3394,0.000
11.7979,0.3387,0.000
11.8016,0.3381,0.000
11.8053,0.3374,0.000
11.8089,0.3367,0.000
11.8126,0.3361,0.000
11.8163,0.3354,0.000
11.8199,0.3347,0.000
11.8236,0.3341,0.000
11.8273,0.3334,0.000
11.8309,0.3327,0.000
11.8346,0.3321,0.000
11.8383,0.3314,0.000
11.8419,0.3307,0.000
11.8456,0.3301,0.000
11.8493,0.3294,0.000
11.8530,0.3288,0.000
11.8566,0.3281,0.000
11.8603,0.3274,0.000
11.8640,0.3268,0.000
11.8676,0.3261,0.000
11.8713,0.3254,0.000
11.8750,0.3247,0.000
11.8786,0.3240,0.000
11.8823,0.3232,0.000
11.8860,0.3225,0.000
11.8896,0.3218,0.000
11.8933,0.3210,0.000
11.8970,0.3203,0.000
11.9006,0.3196,0.000
11.9043,0.3189,0.000
11.9080,0.3181,0.000
11.9116,0.3174,0.000
11.9153,0.3167,0.000
11.9190,0.3160,0.000
11.9226,0.3152,0.000
11.9263,0.3145,0.000
11.9300,0.3138,0.000
11.9336,0.3130,0.000
11.9373,0.3123,0.000
11.9410,0.3116,0.000
11.9446,0.3109,0.000
11.9483,0.3101,0.000
11.9520,0.3094,0.000
11.9557,0.3087,0.000
11.9593,0.3080,0.000
11.9630,0.3072,0.000
11.9667,0.3065,0.000
11.9703,0.3058,0.000
11.9740,0.3050,0.000
11.9777,0.3043,0.000
11.9813,0.3036,0.000
11.9850,0.3029,0.000
11.9887,0.3021,0.000
11.9923,0.3014,0.000
11.9960,0.3007,0.000
11.9997,0.3000,0.000
12.0033,0.2992,0.000
12.0070,0.2985,0.000
12.0107,0.2978,0.000
12.0143,0.2970,0.000
12.0180,0.2963,0.000
12.0217,0.2956,0.000
12.0253,0.2949,0.000
12.0290,0.2941,0.000
12.0327,0.2934,0.000
12.0363,0.2927,0.000
12.0400,0.2920,0.000
12.0437,0.2912,0.000
12.0473,0.2905,0.000
12.0510,0.2898,0.000
12.0547,0.2890,0.000
12.0584,0.2883,0.000
12.0620,0.2876,0.000
12.0657,0.2869,0.000
12.0694,0.2861,0.000
12.0730,0.2854,0.000
12.0767,0.2847,0.000
12.0804,0.2840,0.000
12.0840,0.2832,0.000
12.0877,0.2825,0.000
12.0914,0.2818,0.000
12.0950,0.2810,0.000
12.0987,0.2803,0.000
12.1024,0.2796,0.000
12.1060,0.2789,0.000
12.1097,0.2781,0.000
12.1134,0.2774,0.000
12.1170,0.2767,0.000
12.1207,0.2760,0.000
12.1244,0.2752,0.000
12.1280,0.2745,0.000
12.1317,0.2738,0.000
12.1354,0.2730,0.000
12.1390,0.2723,0.000
12.1427,0.2717,0.000
12.1464,0.2711,0.000
12.1501,0.2705,0.000
12.1537,0.2700,0.000
12.1574,0.2694,0.000
12.1611,0.2688,0.000
12.1647,0.2683,0.000
12.1684,0.2677,0.000
12.1721,0.2671,0.000
12.1757,0.2665,0.000
12.1794,0.2660,0.000
12.1831,0.2654,0.000
12.1867,0.2648,0.000
12.1904,0.2643,0.000
12.1941,0.2637,0.000
12.1977,0.2631,0.000
12.2014,0.2626,0.000
12.2051,0.2620,0.000
12.2087,0.2614,0.000
12.2124,0.2609,0.000
12.2161,0.2603,0.000
12.2197,0.2597,0.000
12.2234,0.2591,0.000
12.2271,0.2586,0.000
12.2307,0.2580,0.000
12.2344,0.2574,0.000
12.2381,0.2569,0.000
12.2417,0.2563,0.000
12.2454,0.2557,0.000
12.2491,0.2552,0.000
12.2528,0.2546,0.000
12.2564,0.2540,0.000
12.2601,0.2535,0.000
12.2638,0.2529,0.000
12.2674,0.2523,0.000
12.2711,0.2518,0.000
12.2748,0.2512,0.000
12.2784,0.2506,0.000
12.2821,0.2500,0.000
12.2858,0.2495,0.000
12.2894,0.2489,0.000
12.2931,0.2483,0.000
12.2968,0.2478,0.000
12.3004,0.2472,0.000
12.3041,0.2466,0.000
12.3078,0.2461,0.000
12.3114,0.2455,0.000
12.3151,0.2449,0.000
12.3188,0.2444,0.000
12.3224,0.2438,0.000
12.3261,0.2432,0.000
12.3298,0.2426,0.000
12.3334,0.2421,0.000
12.3371,0.2415,0.000
12.3408,0.2409,0.000
12.3444,0.2404,0.000
12.3481,0.2398,0.000
12.3518,0.2392,0.000
12.3555,0.2387,0.000
12.3591,0.2381,0.000
12.3628,0.2373,0.000
12.3665,0.2364,0.000
12.3701,0.2356,0.000
12.3738,0.2348,0.000
12.3775,0.2339,0.000
12.3811,0.2331,0.000
12.3848,0.2323,0.000
12.3885,0.2315,0.000
12.3921,0.2306,0.000
12.3958,0.2298,0.000
12.3995,0.2290,0.000
12.4031,0.2281,0.000
12.4068,0.2273,0.000
12.4105,0.2265,0.000
12.4141,0.2257,0.000
12.4178,0.2248,0.000
12.4215,0.2240,0.000
12.4251,0.2232,0.000
12.4288,0.2223,0.000
12.4325,0.2215,0.000
12.4361,0.2207,0.000
12.4398,0.2199,0.000
12.4435,0.2190,0.000
12.4471,0.2182,0.000
12.4508,0.2174,0.000
12.4545,0.2165,0.000
12.4582,0.2157,0.000
12.4618,0.2149,0.000
12.4655,0.2141,0.000
12.4692,0.2135,0.000
12.4728,0.2129,0.000
12.4765,0.2123,0.000
12.4802,0.2118,0.000
12.4838,0.2112,0.000
12.4875,0.2106,0.000
12.4912,0.2100,0.000
12.4948,0.2095,0.000
12.4985,0.2089,0.000
12.5022,0.2083,0.000
12.5058,0.2077,0.000
12.5095,0.2071,0.000
12.5132,0.2066,0.000
12.5168,0.2060,0.000
12.5205,0.2054,0.000
12.5242,0.2048,0.000
12.5278,0.2042,0.000
12.5315,0.2037,0.000
12.5352,0.2031,0.000
12.5388,0.2025,0.000
12.5425,0.2019,0.000
12.5462,0.2013,0.000
12.5498,0.2008,0.000
12.5535,0.2002,0.000
12.5572,0.1996,0.000
12.5609,0.1990,0.000
12.5645,0.1985,0.000
12.5682,0.1979,0.000
12.5719,0.1973,0.000
12.5755,0.1967,0.000
12.5792,0.1961,0.000
12.5829,0.1956,0.000
12.5865,0.1950,0.000
12.5902,0.1944,0.000
12.5939,0.1938,0.000
12.5975,0.1932,0.000
12.6012,0.1927,0.000
12.6049,0.1921,0.000
12.6085,0.1915,0.000
12.6122,0.1909,0.000
12.6159,0.1903,0.000
12.6195,0.1898,0.000
12.6232,0.1892,0.000
12.6269,0.1886,0.000
12.6305,0.1880,0.000
12.6342,0.1875,0.000
12.6379,0.1869,0.000
12.6415,0.1863,0.000
12.6452,0.1857,0.000
12.6489,0.1851,0.000
12.6526,0.1846,0.000
12.6562,0.1840,0.000
12.6599,0.1834,0.000
12.6636,0.1828,0.000
12.6672,0.1822,0.000
12.6709,0.1817,0.000
12.6746,0.1811,0.000
12.6782,0.1805,0.000
12.6819,0.1799,0.000
12.6856,0.1793,0.000
12.6892,0.1788,0.000
12.6929,0.1782,0.000
12.6966,0.1776,0.000
12.7002,0.1770,0.000
12.7039,0.1765,0.000
12.7076,0.1759,0.000
12.7112,0.1753,0.000
12.7149,0.1747,0.000
12.7186,0.1741,0.000
12.7222,0.1736,0.000
12.7259,0.1730,0.000
12.7296,0.1724,0.000
12.7332,0.1718,0.000
12.7369,0.1712,0.000
12.7406,0.1707,0.000
12.7442,0.1701,0.000
12.7479,0.1695,0.000
12.7516,0.1689,0.000
12.7553,0.1683,0.000
12.7589,0.1678,0.000
12.7626,0.1672,0.000
12.7663,0.1666,0.000
12.7699,0.1660,0.000
12.7736,0.1655,0.000
12.7773,0.1649,0.000
12.7809,0.1643,0.000
12.7846,0.1637,0.000
12.7883,0.1631,0.000
12.7919,0.1626,0.000
12.7956,0.1620,0.000
12.7993,0.1614,0.000
12.8029,0.1608,0.000
12.8066,0.1602,0.000
12.8103,0.1597,0.000
12.8139,0.1591,0.000
12.8176,0.1585,0.000
12.8213,0.1579,0.000
12.8249,0.1573,0.000
12.8286,0.1568,0.000
12.8323,0.1562,0.000
12.8359,0.1556,0.000
12.8396,0.1550,0.000
12.8433,0.1545,0.000
12.8469,0.1539,0.000
12.8506,0.1533,0.000
12.8543,0.1527,0.000
12.8580,0.1521,0.000
12.8616,0.1516,0.000
12.8653,0.1510,0.000
12.8690,0.1504,0.000
12.8726,0.1498,0.000
12.8763,0.1492,0.000
12.8800,0.1487,0.000
12.8836,0.1481,0.000
12.8873,0.1475,0.000
12.8910,0.1469,0.000
12.8946,0.1463,0.000
12.8983,0.1458,0.000
12.9020,0.1452,0.000
12.9056,0.1446,0.000
12.9093,0.1440,0.000
12.9130,0.1435,0.000
12.9166,0.1429,0.000
12.9203,0.1423,0.000
12.9240,0.1417,0.000
12.9276,0.1411,0.000
12.9313,0.1406,0.000
12.9350,0.1400,0.000
12.9386,0.1394,0.000
12.9423,0.1388,0.000
12.9460,0.1382,0.000
12.9496,0.1378,0.000
12.9533,0.1374,0.000
12.9570,0.1370,0.000
12.9607,0.1366,0.000
12.9643,0.1362,0.000
12.9680,0.1359,0.000
12.9717,0.1355,0.000
12.9753,0.1351,0.000
12.9790,0.1347,0.000
12.9827,0.1343,0.000
12.9863,0.1339,0.000
12.9900,0.1335,0.000
12.9937,0.1331,0.000
12.9973,0.1328,0.000
13.0010,0.1324,0.000
13.0047,0.1320,0.000
13.0083,0.1316,0.000
13.0120,0.1312,0.000
13.0157,0.1308,0.000
13.0193,0.1304,0.000
13.0230,0.1300,0.000
13.0267,0.1297,0.000
13.0303,0.1293,0.000
13.0340,0.1289,0.000
13.0377,0.1285,0.000
13.0413,0.1281,0.000
13.0450,0.1277,0.000
13.0487,0.1273,0.000
13.0524,0.1269,0.000
13.0560,0.1266,0.000
13.0597,0.1262,0.000
13.0634,0.1258,0.000
13.0670,0.1254,0.000
13.0707,0.1250,0.000
13.0744,0.1246,0.000
13.0780,0.1242,0.000
13.0817,0.1238,0.000
13.0854,0.1235,0.000
13.0890,0.1231,0.000
13.0927,0.1227,0.000
13.0964,0.1223,0.000
13.1000,0.1219,0.000
13.1037,0.1215,0.000
13.1074,0.1211,0.000
13.1110,0.1207,0.000
13.1147,0.1204,0.000
13.1184,0.1200,0.000
13.1220,0.1196,0.000
13.1257,0.1192,0.000
13.1294,0.1188,0.000
13.1330,0.1184,0.000
13.1367,0.1180,0.000
13.1404,0.1176,0.000
13.1440,0.1173,0.000
13.1477,0.1169,0.000
13.1514,0.1165,0.000
13.1551,0.1161,0.000
13.1587,0.1157,0.000
13.1624,0.1153,0.000
13.1661,0.1149,0.000
13.1697,0.1145,0.000
13.1734,0.1142,0.000
13.1771,0.1138,0.000
13.1807,0.1134,0.000
13.1844,0.1130,0.000
13.1881,0.1126,0.000
13.1917,0.1122,0.000
13.1954,0.1118,0.000
13.1991,0.1114,0.000
13.2027,0.1111,0.000
13.2064,0.1107,0.000
13.2101,0.1103,0.000
13.2137,0.1099,0.000
13.2174,0.1095,0.000
13.2211,0.1091,0.000
13.2247,0.1087,0.000
13.2284,0.1084,0.000
13.2321,0.1081,0.000
13.2357,0.1078,0.000
13.2394,0.1075,0.000
13.2431,0.1072,0.000
13.2467,0.1069,0.000
13.2504,0.1066,0.000
13.2541,0.1063,0.000
13.2578,0.1060,0.000
13.2614,0.1057,0.000
13.2651,0.1054,0.000
13.2688,0.1051,0.000
13.2724,0.1048,0.000
13.2761,0.1045,0.000
13.2798,0.1042,0.000
13.2834,0.1039,0.000
13.2871,0.1036,0.000
13.2908,0.1033,0.000
13.2944,0.1030,0.000
13.2981,0.1027,0.000
13.3018,0.1024,0.000
13.3054,0.1021,0.000
13.3091,0.1018,0.000
13.3128,0.1015,0.000
13.3164,0.1012,0.000
13.3201,0.1009,0.000
13.3238,0.1006,0.000
13.3274,0.1003,0.000
13.3311,0.1000,0.000
13.3348,0.0997,0.000
13.3384,0.0994,0.000
13.3421,0.0991,0.000
13.3458,0.0988,0.000
13.3494,0.0986,0.000
13.3531,0.0983,0.000
13.3568,0.0980,0.000
13.3605,0.0977,0.000
13.3641,0.0974,0.000
13.3678,0.0971,0.000
13.3715,0.0968,0.000
13.3751,0.0965,0.000
13.3788,0.0962,0.000
13.3825,0.0959,0.000
13.3861,0.0956,0.000
13.3898,0.0953,0.000
13.3935,0.0950,0.000
13.3971,0.0947,0.000
13.4008,0.0944,0.000
13.4045,0.0941,0.000
13.4081,0.0938,0.000
13.4118,0.0935,0.000
13.4155,0.0932,0.000
13.4191,0.0929,0.000
13.4228,0.0926,0.000
13.4265,0.0923,0.000
13.4301,0.0920,0.000
13.4338,0.0917,0.000
13.4375,0.0914,0.000
13.4411,0.0911,0.000
13.4448,0.0908,0.000
13.4485,0.0905,0.000
13.4522,0.0902,0.000
13.4558,0.0899,0.000
13.4595,0.0896,0.000
13.4632,0.0893,0.000
13.4668,0.0890,0.000
13.4705,0.0887,0.000
13.4742,0.0884,0.000
13.4778,0.0881,0.000
13.4815,0.0877,0.000
13.4852,0.0874,0.000
13.4888,0.0871,0.000
13.4925,0.0867,0.000
13.4962,0.0864,0.000
13.4998,0.0861,0.000
13.5035,0.0858,0.000
13.5072,0.0854,0.000
13.5108,0.0851,0.000
13.5145,0.0848,0.000
13.5182,0.0845,0.000
13.5218,0.0841,0.000
13.5255,0.0838,0.000
13.5292,0.0835,0.000
13.5328,0.0831,0.000
13.5365,0.0828,0.000
13.5402,0.0825,0.000
13.5438,0.0822,0.000
13.5475,0.0818,0.000
13.5512,0.0815,0.000
13.5549,0.0812,0.000
13.5585,0.0808,0.000
13.5622,0.0805,0.000
13.5659,0.0802,0.000
13.5695,0.0799,0.000
13.5732,0.0795,0.000
13.5769,0.0792,0.000
13.5805,0.0789,0.000
13.5842,0.0785,0.000
13.5879,0.0782,0.000
13.5915,0.0779,0.000
13.5952,0.0776,0.000
13.5989,0.0772,0.000
13.6025,0.0769,0.000
13.6062,0.0766,0.000
13.6099,0.0762,0.000
13.6135,0.0759,0.000
13.6172,0.0756,0.000
13.6209,0.0753,0.000
13.6245,0.0749,0.000
13.6282,0.0746,0.000
13.6319,0.0743,0.000
13.6355,0.0739,0.000
13.6392,0.0736,0.000
13.6429,0.0733,0.000
13.6465,0.0730,0.000
13.6502,0.0726,0.000
13.6539,0.0723,0.000
13.6576,0.0720,0.000
13.6612,0.0716,0.000
13.6649,0.0713,0.000
13.6686,0.0710,0.000
13.6722,0.0707,0.000
13.6759,0.0703,0.000
13.6796,0.0700,0.000
13.6832,0.0697,0.000
13.6869,0.0693,0.000
13.6906,0.0690,0.000
13.6942,0.0687,0.000
13.6979,0.0684,0.000
13.7016,0.0680,0.000
13.7052,0.0677,0.000
13.7089,0.0674,0.000
13.7126,0.0670,0.000
13.7162,0.0667,0.000
13.7199,0.0664,0.000
13.7236,0.0661,0.000
13.7272,0.0657,0.000
13.7309,0.0654,0.000
13.7346,0.0651,0.000
13.7382,0.0647,0.000
13.7419,0.0644,0.000
13.7456,0.0641,0.000
13.7492,0.0638,0.000
13.7529,0.0634,0.000
13.7566,0.0631,0.000
13.7603,0.0628,0.000
13.7639,0.0624,0.000
13.7676,0.0621,0.000
13.7713,0.0618,0.000
13.7749,0.0615,0.000
13.7786,0.0611,0.000
13.7823,0.0608,0.000
13.7859,0.0605,0.000
13.7896,0.0601,0.000
13.7933,0.0598,0.000
13.7969,0.0595,0.000
13.8006,0.0592,0.000
13.8043,0.0588,0.000
13.8079,0.0585,0.000
13.8116,0.0582,0.000
13.8153,0.0578,0.000
13.8189,0.0575,0.000
13.8226,0.0572,0.000
13.8263,0.0569,0.000
13.8299,0.0565,0.000
13.8336,0.0562,0.000
13.8373,0.0559,0.000
13.8409,0.0555,0.000
13.8446,0.0552,0.000
13.8483,0.0549,0.000
13.8520,0.0546,0.000
13.8556,0.0542,0.000
13.8593,0.0539,0.000
13.8630,0.0536,0.000
13.8666,0.0532,0.000
13.8703,0.0529,0.000
13.8740,0.0526,0.000
13.8776,0.0523,0.000
13.8813,0.0520,0.000
13.8850,0.0517,0.000
13.8886,0.0515,0.000
13.8923,0.0513,0.000
13.8960,0.0510,0.000
13.8996,0.0508,0.000
13.9033,0.0506,0.000
13.9070,0.0503,0.000
13.9106,0.0501,0.000
13.9143,0.0498,0.000
13.9180,0.0496,0.000
13.9216,0.0494,0.000
13.9253,0.0491,0.000
13.9290,0.0489,0.000
13.9326,0.0486,0.000
13.9363,0.0484,0.000
13.9400,0.0482,0.000
13.9436,0.0479,0.000
13.9473,0.0477,0.000
13.9510,0.0475,0.000
13.9547,0.0472,0.000
13.9583,0.0470,0.000
13.9620,0.0467,0.000
13.9657,0.0465,0.000
13.9693,0.0463,0.000
13.9730,0.0460,0.000
13.9767,0.0458,0.000
13.9803,0.0455,0.000
13.9840,0.0453,0.000
13.9877,0.0451,0.000
13.9913,0.0448,0.000
13.9950,0.0446,0.000
13.9987,0.0444,0.000
14.0023,0.0441,0.000
14.0060,0.0439,0.000
14.0097,0.0436,0.000
14.0133,0.0434,0.000
14.0170,0.0432,0.000
14.0207,0.0429,0.000
14.0243,0.0427,0.000
14.0280,0.0424,0.000
14.0317,0.0422,0.000
14.0353,0.0420,0.000
14.0390,0.0417,0.000
14.0427,0.0415,0.000
14.0463,0.0413,0.000
14.0500,0.0410,0.000
14.0537,0.0408,0.000
14.0574,0.0405,0.000
14.0610,0.0403,0.000
14.0647,0.0401,0.000
14.0684,0.0398,0.000
14.0720,0.0396,0.000
14.0757,0.0393,0.000
14.0794,0.0391,0.000
14.0830,0.0389,0.000
14.0867,0.0386,0.000
14.0904,0.0384,0.000
14.0940,0.0382,0.000
14.0977,0.0379,0.000
14.1014,0.0377,0.000
14.1050,0.0374,0.000
14.1087,0.0372,0.000
14.1124,0.0370,0.000
14.1160,0.0367,0.000
14.1197,0.0365,0.000
14.1234,0.0362,0.000
14.1270,0.0360,0.000
14.1307,0.0358,0.000
14.1344,0.0355,0.000
14.1380,0.0353,0.000
14.1417,0.0351,0.000
14.1454,0.0348,0.000
14.1490,0.0346,0.000
14.1527,0.0343,0.000
14.1564,0.0341,0.000
14.1601,0.0339,0.000
14.1637,0.0336,0.000
14.1674,0.0334,0.000
14.1711,0.0331,0.000
14.1747,0.0329,0.000
14.1784,0.0327,0.000
14.1821,0.0324,0.000
14.1857,0.0322,0.000
14.1894,0.0320,0.000
14.1931,0.0317,0.000
14.1967,0.0315,0.000
14.2004,0.0312,0.000
14.2041,0.0310,0.000
14.2077,0.0308,0.000
14.2114,0.0305,0.000
14.2151,0.0303,0.000
14.2187,0.0299,0.000
14.2224,0.0295,0.000
14.2261,0.0292,0.000
14.2297,0.0288,0.000
14.2334,0.0284,0.000
14.2371,0.0281,0.000
14.2407,0.0277,0.000
14.2444,0.0273,0.000
14.2481,0.0270,0.000
14.2518,0.0266,0.000
14.2554,0.0262,0.000
14.2591,0.0259,0.000
14.2628,0.0255,0.000
14.2664,0.0251,0.000
14.2701,0.0247,0.000
14.2738,0.0244,0.000
14.2774,0.0240,0.000
14.2811,0.0236,0.000
14.2848,0.0233,0.000
14.2884,0.0229,0.000
14.2921,0.0225,0.000
14.2958,0.0222,0.000
14.2994,0.0218,0.000
14.3031,0.0214,0.000
14.3068,0.0211,0.000
14.3104,0.0207,0.000
14.3141,0.0203,0.000
14.3178,0.0199,0.000
14.3214,0.0196,0.000
14.3251,0.0192,0.000
14.3288,0.0188,0.000
14.3324,0.0185,0.000
14.3361,0.0181,0.000
14.3398,0.0177,0.000
14.3434,0.0174,0.000
14.3471,0.0170,0.000
14.3508,0.0166,0.000
14.3545,0.0163,0.000
14.3581,0.0159,0.000
14.3618,0.0155,0.000
14.3655,0.0152,0.000
14.3691,0.0148,0.000
14.3728,0.0144,0.000
14.3765,0.0141,0.000
14.3801,0.0138,0.000
14.3838,0.0136,0.000
14.3875,0.0134,0.000
14.3911,0.0132,0.000
14.3948,0.0129,0.000
14.3985,0.0127,0.000
14.4021,0.0125,0.000
14.4058,0.0122,0.000
14.4095,0.0120,0.000
14.4131,0.0118,0.000
14.4168,0.0116,0.000
14.4205,0.0113,0.000
14.4241,0.0111,0.000
14.4278,0.0109,0.000
14.4315,0.0106,0.000
14.4351,0.0104,0.000
14.4388,0.0102,0.000
14.4425,0.0100,0.000
14.4461,0.0097,0.000
14.4498,0.0095,0.000
14.4535,0.0093,0.000
14.4572,0.0091,0.000
14.4608,0.0088,0.000
14.4645,0.0086,0.000
14.4682,0.0084,0.000
14.4718,0.0081,0.000
14.4755,0.0079,0.000
14.4792,0.0077,0.000
14.4828,0.0075,0.000
14.4865,0.0072,0.000
14.4902,0.0070,0.000
14.4938,0.0068,0.000
14.4975,0.0065,0.000
14.5012,0.0063,0.000
14.5048,0.0061,0.000
14.5085,0.0059,0.000
14.5122,0.0056,0.000
14.5158,0.0054,0.000
14.5195,0.0052,0.000
14.5232,0.0050,0.000
14.5268,0.0047,0.000
14.5305,0.0045,0.000
14.5342,0.0043,0.000
14.5378,0.0040,0.000
14.5415,0.0038,0.000
14.5452,0.0036,0.000
14.5488,0.0034,0.000
14.5525,0.0031,0.000
14.5562,0.0029,0.000
14.5599,0.0027,0.000
14.5635,0.0025,0.000
14.5672,0.0022,0.000
14.5709,0.0020,0.000
14.5745,0.0018,0.000
14.5782,0.0015,0.000
14.5819,0.0013,0.000
14.5855,0.0011,0.000
14.5892,0.0009,0.000
14.5929,0.0006,0.000
14.5965,0.0004,0.000
14.6002,0.0002,0.000
14.6039,0.0000,0.000
14.6075,0.0000,0.000
14.6112,0.0000,0.000
14.6149,0.0000,0.000
14.6185,0.0000,0.000
14.6222,0.0000,0.000
14.6259,0.0000,0.000
14.6295,0.0000,0.000
14.6332,0.0000,0.000
14.6369,0.0000,0.000
14.6405,0.0000,0.000
14.6442,0.0000,0.000
14.6479,0.0000,0.000
14.6516,0.0000,0.000
14.6552,0.0000,0.000
14.6589,0.0000,0.000
14.6626,0.0000,0.000
14.6662,0.0000,0.000
14.6699,0.0000,0.000
14.6736,0.0000,0.000
14.6772,0.0000,0.000
14.6809,0.0000,0.000
14.6846,0.0000,0.000
14.6882,0.0000,0.000
14.6919,0.0000,0.000
14.6956,0.0000,0.000
14.6992,0.0000,0.000
14.7029,0.0000,0.000
14.7066,0.0000,0.000
14.7102,0.0000,0.000
14.7139,0.0000,0.000
14.7176,0.0000,0.000
14.7212,0.0000,0.000
14.7249,0.0000,0.000
14.7286,0.0000,0.000
14.7322,0.0000,0.000
14.7359,0.0000,0.000
14.7396,0.0000,0.000
14.7432,0.0000,0.000
14.7469,0.0000,0.000
14.7506,0.0000,0.000
14.7543,0.0000,0.000
14.7579,0.0000,0.000
14.7616,0.0000,0.000
14.7653,0.0000,0.000
14.7689,0.0000,0.000
14.7726,0.0000,0.000
14.7763,0.0000,0.000
14.7799,0.0000,0.000
14.7836,0.0000,0.000
14.7873,0.0000,0.000
14.7909,0.0000,0.000
14.7946,0.0000,0.000
14.7983,0.0000,0.000
14.8019,0.0000,0.000
14.8056,0.0000,0.000
14.8093,0.0000,0.000
14.8129,0.0000,0.000
14.8166,0.0000,0.000
14.8203,0.0000,0.000
14.8239,0.0000,0.000
14.8276,0.0000,0.000
14.8313,0.0000,0.000
14.8349,0.0000,0.000
14.8386,0.0000,0.000
14.8423,0.0000,0.000
14.8459,0.0000,0.000
14.8496,0.0000,0.000
14.8533,0.0000,0.000
14.8570,0.0000,0.000
14.8606,0.0000,0.000
14.8643,0.0000,0.000
14.8680,0.0000,0.000
14.8716,0.0000,0.000
14.8753,0.0000,0.000
14.8790,0.0000,0.000
14.8826,0.0000,0.000
14.8863,0.0000,0.000
14.8900,0.0000,0.000
14.8936,0.0000,0.000
14.8973,0.0000,0.000
14.9010,0.0000,0.000
14.9046,0.0000,0.000
14.9083,0.0000,0.000
14.9120,0.0000,0.000
14.9156,0.0000,0.000
14.9193,0.0000,0.000
14.9230,0.0000,0.000
14.9266,0.0000,0.000
14.9303,0.0000,0.000
14.9340,0.0000,0.000
14.9376,0.0000,0.000
14.9413,0.0000,0.000
14.9450,0.0000,0.000
14.9486,0.0000,0.000
14.9523,0.0000,0.000
14.9560,0.0000,0.000
14.9597,0.0000,0.000
14.9633,0.0000,0.000
14.9670,0.0000,0.000
14.9707,0.0000,0.000
14.9743,0.0000,0.000
14.9780,0.0000,0.000
14.9817,0.0000,0.000
14.9853,0.0000,0.000
14.9890,0.0000,0.000
14.9927,0.0000,0.000
14.9963,0.0000,0.000
15.0000,0.0000,0.000
