# wavelength (microns), transmission, emissivity
0.4000,0.0000,0.0000
0.4112,0.0000,0.0000
0.4224,0.0000,0.0000
0.4336,0.0000,0.0000
0.4448,0.0000,0.0000
0.4560,0.0000,0.0000
0.4672,0.0000,0.0000
0.4784,0.0000,0.0000
0.4896,0.0000,0.0000
0.5008,0.4942,0.0000
0.5120,0.5226,0.0000
0.5232,0.5651,0.0000
0.5344,0.6210,0.0000
0.5456,0.6493,0.0000
0.5568,0.6717,0.0000
0.5680,0.6940,0.0000
0.5792,0.7208,0.0000
0.5904,0.7371,0.0000
0.6016,0.7488,0.0000
0.6128,0.7645,0.0000
0.6240,0.7769,0.0000
0.6352,0.7852,0.0000
0.6464,0.7936,0.0000
0.6576,0.8026,0.0000
0.6688,0.8117,0.0000
0.6800,0.8165,0.0000
0.6912,0.8220,0.0000
0.7024,0.8255,0.0000
0.7136,0.8282,0.0000
0.7248,0.8310,0.0000
0.7360,0.8343,0.0000
0.7472,0.8365,0.0000
0.7584,0.8383,0.0000
0.7696,0.8413,0.0000
0.7808,0.8432,0.0000
0.7920,0.8447,0.0000
0.8032,0.8466,0.0000
0.8144,0.8475,0.0000
0.8256,0.8495,0.0000
0.8368,0.8512,0.0000
0.8480,0.8526,0.0000
0.8592,0.8537,0.0000
0.8704,0.8551,0.0000
0.8816,0.8564,0.0000
0.8928,0.8597,0.0000
0.9040,0.8605,0.0000
0.9152,0.8611,0.0000
0.9264,0.8616,0.0000
0.9376,0.8623,0.0000
0.9488,0.8627,0.0000
0.9600,0.8632,0.0000
0.9712,0.8641,0.0000
0.9824,0.8649,0.0000
0.9936,0.8658,0.0000
1.0048,0.8667,0.0000
1.0160,0.8670,0.0000
1.0272,0.8673,0.0000
1.0384,0.8678,0.0000
1.0496,0.8681,0.0000
1.0608,0.8683,0.0000
1.0720,0.8690,0.0000
1.0832,0.8696,0.0000
1.0944,0.8699,0.0000
1.1056,0.8706,0.0000
1.1168,0.8713,0.0000
1.1280,0.8717,0.0000
1.1392,0.8716,0.0000
1.1504,0.8718,0.0000
1.1616,0.8724,0.0000
1.1728,0.8728,0.0000
1.1840,0.8728,0.0000
1.1952,0.8729,0.0000
1.2064,0.8731,0.0000
1.2176,0.8736,0.0000
1.2288,0.8741,0.0000
1.2400,0.8745,0.0000
1.2512,0.8747,0.0000
1.2624,0.8748,0.0000
1.2736,0.8751,0.0000
1.2848,0.8753,0.0000
1.2960,0.8755,0.0000
1.3072,0.8759,0.0000
1.3184,0.8762,0.0000
1.3296,0.8763,0.0000
1.3408,0.8765,0.0000
1.3520,0.8766,0.0000
1.3632,0.8765,0.0000
1.3744,0.8765,0.0000
1.3856,0.8767,0.0000
1.3968,0.8769,0.0000
1.4080,0.8770,0.0000
1.4192,0.8772,0.0000
1.4304,0.8774,0.0000
1.4416,0.8774,0.0000
1.4528,0.8775,0.0000
1.4640,0.8776,0.0000
1.4752,0.8778,0.0000
1.4864,0.8779,0.0000
1.4976,0.8780,0.0000
1.5088,0.8781,0.0000
1.5200,0.8782,0.0000
1.5312,0.8781,0.0000
1.5424,0.8781,0.0000
1.5536,0.8781,0.0000
1.5648,0.8782,0.0000
1.5760,0.8782,0.0000
1.5872,0.8785,0.0000
1.5984,0.8787,0.0000
1.6096,0.8789,0.0000
1.6208,0.8790,0.0000
1.6320,0.8792,0.0000
1.6432,0.8793,0.0000
1.6544,0.8795,0.0000
1.6656,0.8796,0.0000
1.6768,0.8798,0.0000
1.6880,0.8799,0.0000
1.6992,0.8800,0.0000
1.7104,0.8802,0.0000
1.7216,0.8803,0.0000
1.7328,0.8805,0.0000
1.7440,0.8803,0.0000
1.7552,0.8801,0.0000
1.7664,0.8799,0.0000
1.7776,0.8802,0.0000
1.7888,0.8804,0.0000
1.8000,0.8806,0.0000
1.8112,0.8807,0.0000
1.8224,0.8810,0.0000
1.8336,0.8812,0.0000
1.8448,0.8811,0.0000
1.8560,0.8811,0.0000
1.8672,0.8813,0.0000
1.8784,0.8815,0.0000
1.8896,0.8818,0.0000
1.9008,0.8817,0.0000
1.9120,0.8816,0.0000
1.9232,0.8814,0.0000
1.9344,0.8816,0.0000
1.9456,0.8818,0.0000
1.9568,0.8819,0.0000
1.9680,0.8821,0.0000
1.9792,0.8823,0.0000
1.9904,0.8825,0.0000
2.0016,0.8827,0.0000
2.0128,0.8829,0.0000
2.0240,0.8830,0.0000
2.0352,0.8831,0.0000
2.0464,0.8831,0.0000
2.0576,0.8832,0.0000
2.0688,0.8833,0.0000
2.0800,0.8834,0.0000
2.0912,0.8834,0.0000
2.1024,0.8833,0.0000
2.1136,0.8832,0.0000
2.1248,0.8832,0.0000
2.1360,0.8832,0.0000
2.1472,0.8833,0.0000
2.1584,0.8834,0.0000
2.1696,0.8835,0.0000
2.1808,0.8836,0.0000
2.1920,0.8836,0.0000
2.2032,0.8837,0.0000
2.2144,0.8838,0.0000
2.2256,0.8841,0.0000
2.2368,0.8843,0.0000
2.2480,0.8846,0.0000
2.2592,0.8850,0.0000
2.2704,0.8854,0.0000
2.2816,0.8857,0.0000
2.2928,0.8860,0.0000
2.3040,0.8859,0.0000
2.3152,0.8857,0.0000
2.3264,0.8858,0.0000
2.3376,0.8861,0.0000
2.3488,0.8862,0.0000
2.3600,0.8863,0.0000
2.3712,0.8863,0.0000
2.3824,0.8864,0.0000
2.3936,0.8865,0.0000
2.4048,0.8867,0.0000
2.4160,0.8869,0.0000
2.4272,0.8870,0.0000
2.4384,0.8870,0.0000
2.4496,0.8871,0.0000
2.4608,0.8871,0.0000
2.4720,0.8871,0.0000
2.4832,0.8870,0.0000
2.4944,0.8870,0.0000
2.5056,0.8870,0.0000
2.5168,0.8869,0.0000
2.5280,0.8868,0.0000
2.5392,0.8867,0.0000
2.5504,0.8868,0.0000
2.5616,0.8869,0.0000
2.5728,0.8870,0.0000
2.5840,0.8870,0.0000
2.5952,0.8871,0.0000
2.6064,0.8872,0.0000
2.6176,0.8873,0.0000
2.6288,0.8873,0.0000
2.6400,0.8874,0.0000
2.6512,0.8875,0.0000
2.6624,0.8875,0.0000
2.6736,0.8875,0.0000
2.6848,0.8875,0.0000
2.6960,0.8874,0.0000
2.7072,0.8874,0.0000
2.7184,0.8873,0.0000
2.7296,0.8871,0.0000
2.7408,0.8868,0.0000
2.7520,0.8863,0.0000
2.7632,0.8859,0.0000
2.7744,0.8855,0.0000
2.7856,0.8854,0.0000
2.7968,0.8853,0.0000
2.8080,0.8853,0.0000
2.8192,0.8852,0.0000
2.8304,0.8852,0.0000
2.8416,0.8852,0.0000
2.8528,0.8852,0.0000
2.8640,0.8852,0.0000
2.8752,0.8852,0.0000
2.8864,0.8852,0.0000
2.8976,0.8852,0.0000
2.9088,0.8852,0.0000
2.9200,0.8852,0.0000
2.9312,0.8852,0.0000
2.9424,0.8852,0.0000
2.9536,0.8853,0.0000
2.9648,0.8853,0.0000
2.9760,0.8853,0.0000
2.9872,0.8854,0.0000
2.9984,0.8854,0.0000
3.0096,0.8854,0.0000
3.0208,0.8855,0.0000
3.0320,0.8856,0.0000
3.0432,0.8857,0.0000
3.0544,0.8858,0.0000
3.0656,0.8859,0.0000
3.0768,0.8860,0.0000
3.0880,0.8861,0.0000
3.0992,0.8861,0.0000
3.1104,0.8862,0.0000
3.1216,0.8862,0.0000
3.1328,0.8863,0.0000
3.1440,0.8864,0.0000
3.1552,0.8864,0.0000
3.1664,0.8865,0.0000
3.1776,0.8866,0.0000
3.1888,0.8866,0.0000
3.2000,0.8867,0.0000
3.2112,0.8868,0.0000
3.2224,0.8868,0.0000
3.2336,0.8869,0.0000
3.2448,0.8870,0.0000
3.2560,0.8871,0.0000
3.2672,0.8871,0.0000
3.2784,0.8872,0.0000
3.2896,0.8873,0.0000
3.3008,0.8874,0.0000
3.3120,0.8875,0.0000
3.3232,0.8875,0.0000
3.3344,0.8875,0.0000
3.3456,0.8876,0.0000
3.3568,0.8876,0.0000
3.3680,0.8877,0.0000
3.3792,0.8877,0.0000
3.3904,0.8877,0.0000
3.4016,0.8877,0.0000
3.4128,0.8877,0.0000
3.4240,0.8876,0.0000
3.4352,0.8877,0.0000
3.4464,0.8878,0.0000
3.4576,0.8879,0.0000
3.4688,0.8880,0.0000
3.4800,0.8881,0.0000
3.4912,0.8882,0.0000
3.5024,0.8882,0.0000
3.5136,0.8883,0.0000
3.5248,0.8883,0.0000
3.5360,0.8884,0.0000
3.5472,0.8884,0.0000
3.5584,0.8884,0.0000
3.5696,0.8885,0.0000
3.5808,0.8885,0.0000
3.5920,0.8885,0.0000
3.6032,0.8886,0.0000
3.6144,0.8886,0.0000
3.6256,0.8887,0.0000
3.6368,0.8887,0.0000
3.6480,0.8888,0.0000
3.6592,0.8888,0.0000
3.6704,0.8888,0.0000
3.6816,0.8889,0.0000
3.6928,0.8889,0.0000
3.7040,0.8890,0.0000
3.7152,0.8890,0.0000
3.7264,0.8891,0.0000
3.7376,0.8891,0.0000
3.7488,0.8892,0.0000
3.7600,0.8892,0.0000
3.7712,0.8893,0.0000
3.7824,0.8893,0.0000
3.7936,0.8894,0.0000
3.8048,0.8894,0.0000
3.8160,0.8895,0.0000
3.8272,0.8896,0.0000
3.8384,0.8896,0.0000
3.8496,0.8896,0.0000
3.8608,0.8896,0.0000
3.8720,0.8896,0.0000
3.8832,0.8896,0.0000
3.8944,0.8895,0.0000
3.9056,0.8895,0.0000
3.9168,0.8895,0.0000
3.9280,0.8895,0.0000
3.9392,0.8895,0.0000
3.9504,0.8896,0.0000
3.9616,0.8896,0.0000
3.9728,0.8897,0.0000
3.9840,0.8897,0.0000
3.9952,0.8898,0.0000
4.0064,0.8898,0.0000
4.0176,0.8899,0.0000
4.0288,0.8899,0.0000
4.0400,0.8900,0.0000
4.0512,0.8900,0.0000
4.0624,0.8901,0.0000
4.0736,0.8901,0.0000
4.0848,0.8901,0.0000
4.0960,0.8901,0.0000
4.1072,0.8902,0.0000
4.1184,0.8902,0.0000
4.1296,0.8902,0.0000
4.1408,0.8902,0.0000
4.1520,0.8902,0.0000
4.1632,0.8902,0.0000
4.1744,0.8902,0.0000
4.1856,0.8902,0.0000
4.1968,0.8902,0.0000
4.2080,0.8902,0.0000
4.2192,0.8902,0.0000
4.2304,0.8902,0.0000
4.2416,0.8902,0.0000
4.2528,0.8902,0.0000
4.2640,0.8902,0.0000
4.2752,0.8903,0.0000
4.2864,0.8903,0.0000
4.2976,0.8904,0.0000
4.3088,0.8905,0.0000
4.3200,0.8905,0.0000
4.3312,0.8906,0.0000
4.3424,0.8907,0.0000
4.3536,0.8907,0.0000
4.3648,0.8907,0.0000
4.3760,0.8908,0.0000
4.3872,0.8908,0.0000
4.3984,0.8909,0.0000
4.4096,0.8909,0.0000
4.4208,0.8909,0.0000
4.4320,0.8910,0.0000
4.4432,0.8910,0.0000
4.4544,0.8910,0.0000
4.4656,0.8911,0.0000
4.4768,0.8911,0.0000
4.4880,0.8911,0.0000
4.4992,0.8912,0.0000
4.5104,0.8912,0.0000
4.5216,0.8913,0.0000
4.5328,0.8913,0.0000
4.5440,0.8913,0.0000
4.5552,0.8914,0.0000
4.5664,0.8914,0.0000
4.5776,0.8914,0.0000
4.5888,0.8915,0.0000
4.6000,0.8915,0.0000
4.6112,0.8916,0.0000
4.6224,0.8916,0.0000
4.6336,0.8916,0.0000
4.6448,0.8917,0.0000
4.6560,0.8917,0.0000
4.6672,0.8917,0.0000
4.6784,0.8918,0.0000
4.6896,0.8918,0.0000
4.7008,0.8918,0.0000
4.7120,0.8919,0.0000
4.7232,0.8919,0.0000
4.7344,0.8919,0.0000
4.7456,0.8920,0.0000
4.7568,0.8920,0.0000
4.7680,0.8920,0.0000
4.7792,0.8921,0.0000
4.7904,0.8921,0.0000
4.8016,0.8921,0.0000
4.8128,0.8922,0.0000
4.8240,0.8922,0.0000
4.8352,0.8922,0.0000
4.8464,0.8923,0.0000
4.8576,0.8923,0.0000
4.8688,0.8923,0.0000
4.8800,0.8924,0.0000
4.8912,0.8924,0.0000
4.9024,0.8924,0.0000
4.9136,0.8925,0.0000
4.9248,0.8925,0.0000
4.9360,0.8925,0.0000
4.9472,0.8926,0.0000
4.9584,0.8926,0.0000
4.9696,0.8926,0.0000
4.9808,0.8926,0.0000
4.9920,0.8927,0.0000
5.0032,0.8927,0.0000
5.0144,0.8927,0.0000
5.0256,0.8928,0.0000
5.0368,0.8928,0.0000
5.0480,0.8928,0.0000
5.0592,0.8928,0.0000
5.0704,0.8929,0.0000
5.0816,0.8929,0.0000
5.0928,0.8929,0.0000
5.1040,0.8930,0.0000
5.1152,0.8930,0.0000
5.1264,0.8930,0.0000
5.1376,0.8931,0.0000
5.1488,0.8931,0.0000
5.1600,0.8931,0.0000
5.1712,0.8931,0.0000
5.1824,0.8932,0.0000
5.1936,0.8932,0.0000
5.2048,0.8932,0.0000
5.2160,0.8933,0.0000
5.2272,0.8933,0.0000
5.2384,0.8933,0.0000
5.2496,0.8934,0.0000
5.2608,0.8934,0.0000
5.2720,0.8934,0.0000
5.2832,0.8934,0.0000
5.2944,0.8935,0.0000
5.3056,0.8935,0.0000
5.3168,0.8935,0.0000
5.3280,0.8936,0.0000
5.3392,0.8936,0.0000
5.3504,0.8936,0.0000
5.3616,0.8937,0.0000
5.3728,0.8937,0.0000
5.3840,0.8938,0.0000
5.3952,0.8938,0.0000
5.4064,0.8938,0.0000
5.4176,0.8939,0.0000
5.4288,0.8939,0.0000
5.4400,0.8939,0.0000
5.4512,0.8940,0.0000
5.4624,0.8940,0.0000
5.4736,0.8941,0.0000
5.4848,0.8941,0.0000
5.4960,0.8941,0.0000
5.5072,0.8942,0.0000
5.5184,0.8942,0.0000
5.5296,0.8943,0.0000
5.5408,0.8943,0.0000
5.5520,0.8943,0.0000
5.5632,0.8943,0.0000
5.5744,0.8943,0.0000
5.5856,0.8943,0.0000
5.5968,0.8944,0.0000
5.6080,0.8944,0.0000
5.6192,0.8945,0.0000
5.6304,0.8945,0.0000
5.6416,0.8946,0.0000
5.6528,0.8946,0.0000
5.6640,0.8946,0.0000
5.6752,0.8946,0.0000
5.6864,0.8946,0.0000
5.6976,0.8947,0.0000
5.7088,0.8948,0.0000
5.7200,0.8948,0.0000
5.7312,0.8949,0.0000
5.7424,0.8949,0.0000
5.7536,0.8950,0.0000
5.7648,0.8950,0.0000
5.7760,0.8951,0.0000
5.7872,0.8951,0.0000
5.7984,0.8952,0.0000
5.8096,0.8952,0.0000
5.8208,0.8953,0.0000
5.8320,0.8953,0.0000
5.8432,0.8953,0.0000
5.8544,0.8954,0.0000
5.8656,0.8954,0.0000
5.8768,0.8955,0.0000
5.8880,0.8955,0.0000
5.8992,0.8955,0.0000
5.9104,0.8956,0.0000
5.9216,0.8956,0.0000
5.9328,0.8956,0.0000
5.9440,0.8957,0.0000
5.9552,0.8957,0.0000
5.9664,0.8957,0.0000
5.9776,0.8958,0.0000
5.9888,0.8958,0.0000
6.0000,0.8958,0.0000
