# wavelength (microns), transmission, emissivity
2.4800,0.0000,0.0
2.4850,0.0000,0.0
2.4901,0.0000,0.0
2.4951,0.0004,0.0
2.5002,0.0005,0.0
2.5052,0.0002,0.0
2.5103,0.0001,0.0
2.5153,0.0001,0.0
2.5204,0.0001,0.0
2.5254,0.0001,0.0
2.5305,0.0001,0.0
2.5355,0.0001,0.0
2.5406,0.0000,0.0
2.5456,0.0000,0.0
2.5507,0.0000,0.0
2.5557,0.0000,0.0
2.5608,0.0000,0.0
2.5658,0.0000,0.0
2.5708,0.0000,0.0
2.5759,0.0000,0.0
2.5809,0.0000,0.0
2.5860,0.0000,0.0
2.5910,0.0000,0.0
2.5961,0.0000,0.0
2.6011,0.0000,0.0
2.6062,0.0000,0.0
2.6112,0.0000,0.0
2.6163,0.0000,0.0
2.6213,0.0000,0.0
2.6264,0.0000,0.0
2.6314,0.0000,0.0
2.6365,0.0000,0.0
2.6415,0.0000,0.0
2.6465,0.0000,0.0
2.6516,0.0000,0.0
2.6566,0.0000,0.0
2.6617,0.0000,0.0
2.6667,0.0000,0.0
2.6718,0.0000,0.0
2.6768,0.0000,0.0
2.6819,0.0000,0.0
2.6869,0.0000,0.0
2.6920,0.0000,0.0
2.6970,0.0000,0.0
2.7021,0.0000,0.0
2.7071,0.0000,0.0
2.7122,0.0000,0.0
2.7172,0.0000,0.0
2.7223,0.0000,0.0
2.7273,0.0000,0.0
2.7323,0.0000,0.0
2.7374,0.0000,0.0
2.7424,0.0000,0.0
2.7475,0.0000,0.0
2.7525,0.0000,0.0
2.7576,0.0000,0.0
2.7626,0.0000,0.0
2.7677,0.0000,0.0
2.7727,0.0000,0.0
2.7778,0.0000,0.0
2.7828,0.0000,0.0
2.7879,0.0000,0.0
2.7929,0.0000,0.0
2.7980,0.0000,0.0
2.8030,0.0000,0.0
2.8081,0.0000,0.0
2.8131,0.0000,0.0
2.8181,0.0000,0.0
2.8232,0.0000,0.0
2.8282,0.0000,0.0
2.8333,0.0000,0.0
2.8383,0.0000,0.0
2.8434,0.0000,0.0
2.8484,0.0000,0.0
2.8535,0.0000,0.0
2.8585,0.0000,0.0
2.8636,0.0000,0.0
2.8686,0.0000,0.0
2.8737,0.0000,0.0
2.8787,0.0000,0.0
2.8838,0.0000,0.0
2.8888,0.0000,0.0
2.8938,0.0000,0.0
2.8989,0.0000,0.0
2.9039,0.0000,0.0
2.9090,0.0000,0.0
2.9140,0.0000,0.0
2.9191,0.0000,0.0
2.9241,0.0000,0.0
2.9292,0.0000,0.0
2.9342,0.0000,0.0
2.9393,0.0000,0.0
2.9443,0.0000,0.0
2.9494,0.0000,0.0
2.9544,0.0000,0.0
2.9595,0.0000,0.0
2.9645,0.0000,0.0
2.9696,0.0000,0.0
2.9746,0.0000,0.0
2.9796,0.0000,0.0
2.9847,0.0000,0.0
2.9897,0.0000,0.0
2.9948,0.0000,0.0
2.9998,0.0000,0.0
3.0049,0.0000,0.0
3.0099,0.0000,0.0
3.0150,0.0000,0.0
3.0200,0.0000,0.0
3.0251,0.0000,0.0
3.0301,0.0000,0.0
3.0352,0.0000,0.0
3.0402,0.0000,0.0
3.0453,0.0000,0.0
3.0503,0.0000,0.0
3.0554,0.0000,0.0
3.0604,0.0000,0.0
3.0654,0.0000,0.0
3.0705,0.0000,0.0
3.0755,0.0000,0.0
3.0806,0.0000,0.0
3.0856,0.0000,0.0
3.0907,0.0000,0.0
3.0957,0.0000,0.0
3.1008,0.0000,0.0
3.1058,0.0000,0.0
3.1109,0.0000,0.0
3.1159,0.0000,0.0
3.1210,0.0000,0.0
3.1260,0.0000,0.0
3.1311,0.0000,0.0
3.1361,0.0000,0.0
3.1411,0.0000,0.0
3.1462,0.0000,0.0
3.1512,0.0000,0.0
3.1563,0.0000,0.0
3.1613,0.0000,0.0
3.1664,0.0000,0.0
3.1714,0.0000,0.0
3.1765,0.0000,0.0
3.1815,0.0000,0.0
3.1866,0.0000,0.0
3.1916,0.0000,0.0
3.1967,0.0000,0.0
3.2017,0.0000,0.0
3.2068,0.0000,0.0
3.2118,0.0000,0.0
3.2169,0.0000,0.0
3.2219,0.0000,0.0
3.2269,0.0000,0.0
3.2320,0.0000,0.0
3.2370,0.0000,0.0
3.2421,0.0000,0.0
3.2471,0.0000,0.0
3.2522,0.0000,0.0
3.2572,0.0000,0.0
3.2623,0.0000,0.0
3.2673,0.0000,0.0
3.2724,0.0000,0.0
3.2774,0.0000,0.0
3.2825,0.0000,0.0
3.2875,0.0000,0.0
3.2926,0.0000,0.0
3.2976,0.0000,0.0
3.3027,0.0000,0.0
3.3077,0.0000,0.0
3.3127,0.0000,0.0
3.3178,0.0000,0.0
3.3228,0.0000,0.0
3.3279,0.0000,0.0
3.3329,0.0000,0.0
3.3380,0.0000,0.0
3.3430,0.0000,0.0
3.3481,0.0000,0.0
3.3531,0.0000,0.0
3.3582,0.0000,0.0
3.3632,0.0000,0.0
3.3683,0.0000,0.0
3.3733,0.0000,0.0
3.3784,0.0000,0.0
3.3834,0.0000,0.0
3.3884,0.0000,0.0
3.3935,0.0000,0.0
3.3985,0.0000,0.0
3.4036,0.0000,0.0
3.4086,0.0000,0.0
3.4137,0.0000,0.0
3.4187,0.0000,0.0
3.4238,0.0000,0.0
3.4288,0.0000,0.0
3.4339,0.0000,0.0
3.4389,0.0000,0.0
3.4440,0.0000,0.0
3.4490,0.0000,0.0
3.4541,0.0000,0.0
3.4591,0.0000,0.0
3.4642,0.0000,0.0
3.4692,0.0000,0.0
3.4742,0.0000,0.0
3.4793,0.0000,0.0
3.4843,0.0000,0.0
3.4894,0.0000,0.0
3.4944,0.0000,0.0
3.4995,0.0000,0.0
3.5045,0.0000,0.0
3.5096,0.0000,0.0
3.5146,0.0000,0.0
3.5197,0.0000,0.0
3.5247,0.0000,0.0
3.5298,0.0000,0.0
3.5348,0.0000,0.0
3.5399,0.0000,0.0
3.5449,0.0000,0.0
3.5500,0.0000,0.0
3.5550,0.0000,0.0
3.5600,0.0000,0.0
3.5651,0.0000,0.0
3.5701,0.0000,0.0
3.5752,0.0000,0.0
3.5802,0.0000,0.0
3.5853,0.0000,0.0
3.5903,0.0000,0.0
3.5954,0.0000,0.0
3.6004,0.0000,0.0
3.6055,0.0000,0.0
3.6105,0.0000,0.0
3.6156,0.0000,0.0
3.6206,0.0000,0.0
3.6257,0.0000,0.0
3.6307,0.0000,0.0
3.6358,0.0000,0.0
3.6408,0.0000,0.0
3.6458,0.0000,0.0
3.6509,0.0000,0.0
3.6559,0.0000,0.0
3.6610,0.0000,0.0
3.6660,0.0000,0.0
3.6711,0.0000,0.0
3.6761,0.0000,0.0
3.6812,0.0000,0.0
3.6862,0.0000,0.0
3.6913,0.0000,0.0
3.6963,0.0001,0.0
3.7014,0.0001,0.0
3.7064,0.0001,0.0
3.7115,0.0001,0.0
3.7165,0.0001,0.0
3.7215,0.0001,0.0
3.7266,0.0002,0.0
3.7316,0.0002,0.0
3.7367,0.0003,0.0
3.7417,0.0004,0.0
3.7468,0.0005,0.0
3.7518,0.0006,0.0
3.7569,0.0007,0.0
3.7619,0.0009,0.0
3.7670,0.0011,0.0
3.7720,0.0014,0.0
3.7771,0.0017,0.0
3.7821,0.0021,0.0
3.7872,0.0026,0.0
3.7922,0.0032,0.0
3.7973,0.0039,0.0
3.8023,0.0049,0.0
3.8073,0.0061,0.0
3.8124,0.0076,0.0
3.8174,0.0096,0.0
3.8225,0.0122,0.0
3.8275,0.0158,0.0
3.8326,0.0205,0.0
3.8376,0.0270,0.0
3.8427,0.0357,0.0
3.8477,0.0475,0.0
3.8528,0.0632,0.0
3.8578,0.0836,0.0
3.8629,0.1092,0.0
3.8679,0.1401,0.0
3.8730,0.1755,0.0
3.8780,0.2137,0.0
3.8831,0.2526,0.0
3.8881,0.2895,0.0
3.8931,0.3225,0.0
3.8982,0.3511,0.0
3.9032,0.3740,0.0
3.9083,0.3922,0.0
3.9133,0.4064,0.0
3.9184,0.4179,0.0
3.9234,0.4263,0.0
3.9285,0.4327,0.0
3.9335,0.4374,0.0
3.9386,0.4412,0.0
3.9436,0.4437,0.0
3.9487,0.4455,0.0
3.9537,0.4465,0.0
3.9588,0.4471,0.0
3.9638,0.4474,0.0
3.9688,0.4476,0.0
3.9739,0.4482,0.0
3.9789,0.4488,0.0
3.9840,0.4489,0.0
3.9890,0.4490,0.0
3.9941,0.4490,0.0
3.9991,0.4490,0.0
4.0042,0.4490,0.0
4.0092,0.4489,0.0
4.0143,0.4490,0.0
4.0193,0.4497,0.0
4.0244,0.4501,0.0
4.0294,0.4501,0.0
4.0345,0.4500,0.0
4.0395,0.4500,0.0
4.0446,0.4502,0.0
4.0496,0.4504,0.0
4.0546,0.4503,0.0
4.0597,0.4503,0.0
4.0647,0.4508,0.0
4.0698,0.4507,0.0
4.0748,0.4513,0.0
4.0799,0.4514,0.0
4.0849,0.4513,0.0
4.0900,0.4511,0.0
4.0950,0.4510,0.0
4.1001,0.4509,0.0
4.1051,0.4510,0.0
4.1102,0.4506,0.0
4.1152,0.4505,0.0
4.1203,0.4508,0.0
4.1253,0.4507,0.0
4.1304,0.4505,0.0
4.1354,0.4501,0.0
4.1404,0.4497,0.0
4.1455,0.4497,0.0
4.1505,0.4501,0.0
4.1556,0.4497,0.0
4.1606,0.4496,0.0
4.1657,0.4494,0.0
4.1707,0.4489,0.0
4.1758,0.4484,0.0
4.1808,0.4478,0.0
4.1859,0.4473,0.0
4.1909,0.4467,0.0
4.1960,0.4467,0.0
4.2010,0.4461,0.0
4.2061,0.4460,0.0
4.2111,0.4455,0.0
4.2161,0.4449,0.0
4.2212,0.4444,0.0
4.2262,0.4439,0.0
4.2313,0.4434,0.0
4.2363,0.4429,0.0
4.2414,0.4424,0.0
4.2464,0.4425,0.0
4.2515,0.4426,0.0
4.2565,0.4422,0.0
4.2616,0.4408,0.0
4.2666,0.4373,0.0
4.2717,0.4332,0.0
4.2767,0.4281,0.0
4.2818,0.4273,0.0
4.2868,0.4344,0.0
4.2919,0.4388,0.0
4.2969,0.4395,0.0
4.3019,0.4392,0.0
4.3070,0.4388,0.0
4.3120,0.4383,0.0
4.3171,0.4379,0.0
4.3221,0.4374,0.0
4.3272,0.4370,0.0
4.3322,0.4365,0.0
4.3373,0.4361,0.0
4.3423,0.4356,0.0
4.3474,0.4356,0.0
4.3524,0.4355,0.0
4.3575,0.4349,0.0
4.3625,0.4342,0.0
4.3676,0.4335,0.0
4.3726,0.4327,0.0
4.3777,0.4319,0.0
4.3827,0.4310,0.0
4.3877,0.4301,0.0
4.3928,0.4292,0.0
4.3978,0.4283,0.0
4.4029,0.4276,0.0
4.4079,0.4274,0.0
4.4130,0.4267,0.0
4.4180,0.4267,0.0
4.4231,0.4262,0.0
4.4281,0.4258,0.0
4.4332,0.4254,0.0
4.4382,0.4251,0.0
4.4433,0.4248,0.0
4.4483,0.4245,0.0
4.4534,0.4242,0.0
4.4584,0.4239,0.0
4.4634,0.4236,0.0
4.4685,0.4233,0.0
4.4735,0.4230,0.0
4.4786,0.4231,0.0
4.4836,0.4228,0.0
4.4887,0.4229,0.0
4.4937,0.4225,0.0
4.4988,0.4221,0.0
4.5038,0.4215,0.0
4.5089,0.4209,0.0
4.5139,0.4203,0.0
4.5190,0.4196,0.0
4.5240,0.4189,0.0
4.5291,0.4181,0.0
4.5341,0.4174,0.0
4.5392,0.4166,0.0
4.5442,0.4158,0.0
4.5492,0.4149,0.0
4.5543,0.4141,0.0
4.5593,0.4133,0.0
4.5644,0.4130,0.0
4.5694,0.4122,0.0
4.5745,0.4120,0.0
4.5795,0.4112,0.0
4.5846,0.4105,0.0
4.5896,0.4098,0.0
4.5947,0.4090,0.0
4.5997,0.4083,0.0
4.6048,0.4075,0.0
4.6098,0.4068,0.0
4.6149,0.4061,0.0
4.6199,0.4054,0.0
4.6250,0.4045,0.0
4.6300,0.4034,0.0
4.6350,0.4023,0.0
4.6401,0.4011,0.0
4.6451,0.3999,0.0
4.6502,0.3987,0.0
4.6552,0.3979,0.0
4.6603,0.3966,0.0
4.6653,0.3954,0.0
4.6704,0.3943,0.0
4.6754,0.3933,0.0
4.6805,0.3923,0.0
4.6855,0.3914,0.0
4.6906,0.3907,0.0
4.6956,0.3901,0.0
4.7007,0.3900,0.0
4.7057,0.3895,0.0
4.7107,0.3891,0.0
4.7158,0.3890,0.0
4.7208,0.3889,0.0
4.7259,0.3887,0.0
4.7309,0.3884,0.0
4.7360,0.3887,0.0
4.7410,0.3884,0.0
4.7461,0.3882,0.0
4.7511,0.3879,0.0
4.7562,0.3875,0.0
4.7612,0.3871,0.0
4.7663,0.3865,0.0
4.7713,0.3860,0.0
4.7764,0.3854,0.0
4.7814,0.3848,0.0
4.7865,0.3842,0.0
4.7915,0.3836,0.0
4.7965,0.3831,0.0
4.8016,0.3827,0.0
4.8066,0.3823,0.0
4.8117,0.3825,0.0
4.8167,0.3823,0.0
4.8218,0.3821,0.0
4.8268,0.3819,0.0
4.8319,0.3817,0.0
4.8369,0.3815,0.0
4.8420,0.3812,0.0
4.8470,0.3807,0.0
4.8521,0.3802,0.0
4.8571,0.3794,0.0
4.8622,0.3785,0.0
4.8672,0.3774,0.0
4.8723,0.3762,0.0
4.8773,0.3752,0.0
4.8823,0.3732,0.0
4.8874,0.3710,0.0
4.8924,0.3689,0.0
4.8975,0.3668,0.0
4.9025,0.3647,0.0
4.9076,0.3627,0.0
4.9126,0.3608,0.0
4.9177,0.3589,0.0
4.9227,0.3568,0.0
4.9278,0.3546,0.0
4.9328,0.3519,0.0
4.9379,0.3487,0.0
4.9429,0.3449,0.0
4.9480,0.3397,0.0
4.9530,0.3331,0.0
4.9580,0.3251,0.0
4.9631,0.3154,0.0
4.9681,0.3043,0.0
4.9732,0.2917,0.0
4.9782,0.2779,0.0
4.9833,0.2631,0.0
4.9883,0.2476,0.0
4.9934,0.2318,0.0
4.9984,0.2158,0.0
